timestamp,orien_x,orien_y,orien_z,orien_w,ang_v_x,ang_v_y,ang_v_z,lin_acc_x,lin_acc_y,lin_acc_z
5687551,-0.00544216546513,0.0700605233152,0.000382225890097,0.997527824079,0.00100012241802,-0.0637148443835,0.203488530507,-1.33712836208,-0.103360405011,9.47155495957
5687633,-0.0047999137094,0.0682873715819,0.000328544225482,0.997654092243,-0.0015283768565,-0.0693042811168,0.200420089613,-1.30386226505,-0.0912255032603,9.47941854825
5687717,-0.00354345593736,0.0673231160469,0.000239100471717,0.997724904368,-0.00432254660559,-0.0730836332183,0.196876264831,-1.28677564882,-0.067424570755,9.49131930644
5687799,-0.00260344658718,0.067740489776,0.000176765384654,0.997699562426,-0.0077018087009,-0.0732227941719,0.1943242799,-1.29519845204,-0.0495527087616,9.4939107782
5687879,-0.00146157468248,0.0670410002133,9.82064770365e-05,0.997749146051,-0.010580746081,-0.073306290744,0.193644469065,-1.28157736102,-0.0278162639288,9.49355029993
5687959,-0.00185081123994,0.0660934980317,0.000122594862132,0.997811710187,-0.013159488632,-0.0737820787487,0.193236582564,-1.25975775694,-0.0351251111405,9.46747663503
5688039,-0.00258225984383,0.0650322221318,0.000168286896087,0.997879809245,-0.0113012136709,-0.0740675515516,0.193843230786,-1.24139875085,-0.0490872261081,9.48367531818
5688119,-0.00312781684129,0.0641750187724,0.000201143319523,0.997933736913,-0.00678072820254,-0.0750902153562,0.195484289903,-1.22822856569,-0.0596192765828,9.50991451952
5688198,-0.00261229419866,0.0633235786848,0.000165753044573,0.997989615591,-0.00193998661421,-0.0778322639463,0.196894615435,-1.21434095045,-0.0498973557446,9.53044644365
5688281,-0.0018164274478,0.0624279635051,0.000113617669357,0.99804781301,-0.00116399196853,-0.0790518030389,0.19646374057,-1.19810751583,-0.0347268167671,9.53965313596
5688359,-0.00075534876369,0.0613617011822,4.6437004557e-05,0.998115308429,-0.00282684548843,-0.0751009358184,0.193225385221,-1.1718474636,-0.0143717455778,9.49465949632
5688439,0.000201495812701,0.060777107661,-1.2269013907e-05,0.998151342449,-0.00893283833791,-0.0688992049329,0.189153921704,-1.15848563392,0.00382680128611,9.47771895951
5688519,0.000246341486873,0.0604081409259,-1.49082577563e-05,0.998173730171,-0.0155762644778,-0.0643267862787,0.186285353532,-1.15429925877,0.00469028243182,9.50179172117
5688600,-0.000606579297214,0.0609019560482,3.70105733094e-05,0.998143568051,-0.0242449108379,-0.0594548847789,0.184564212629,-1.16399786215,-0.0115510405018,9.50306726903
5688679,-0.00161826798914,0.0604729933484,9.80410698793e-05,0.998168517171,-0.0298717887154,-0.0552546736946,0.183957218149,-1.15784601587,-0.0308726409027,9.52059200937
5688758,-0.00296362981744,0.0599279799799,0.000177924917801,0.998198288145,-0.0285653247658,-0.0523088569825,0.184870091645,-1.14840882412,-0.0565913909381,9.52967033257
5688839,-0.00245465259641,0.0594965435397,0.000146302962195,0.998225482836,-0.0239502358429,-0.0505413669553,0.188823336235,-1.14035230741,-0.0468835235277,9.5322442845
5688920,-0.00195588017737,0.0599976672369,0.000117560256889,0.998196594183,-0.0211811824891,-0.0469267325702,0.192898043234,-1.14605288469,-0.0372280804252,9.49907273159
5688999,-0.00179828357493,0.0590804848888,0.000106429547301,0.998251597121,-0.0207968206612,-0.0400753612631,0.194917177372,-1.1231370128,-0.0340684363899,9.45522778324
5689079,-0.00219643655689,0.0593061054778,0.000130492101029,0.9982374189,-0.0218432737489,-0.0355388484173,0.195277277733,-1.12471038029,-0.0415100364433,9.43203327639
5689159,-0.00315023152877,0.0592824159756,0.000187083301703,0.998236262714,-0.0267280462161,-0.0340940108942,0.194641957826,-1.12589382095,-0.0596219459383,9.44564989137
5689239,-0.00383076260111,0.0594180991852,0.000228021185665,0.998225807497,-0.0313616699423,-0.0332271083804,0.192558005636,-1.12325200302,-0.0721650327973,9.40162626417
5689319,-0.00413974458774,0.0597396001909,0.000247751305933,0.998205380322,-0.034141844178,-0.0318555867492,0.190456254199,-1.12286401309,-0.0775361034186,9.34719992842
5689398,-0.00342443680395,0.0587762506503,0.000201625317813,0.998265287857,-0.0362356387809,-0.0323097439548,0.186641062968,-1.10635064784,-0.0642387543363,9.36242816018
5689478,-0.00182849444019,0.0583666181289,0.000106905467124,0.998293535523,-0.0391946757885,-0.0342849985241,0.183926258168,-1.10410407401,-0.0344731097795,9.40987232579
5689559,-0.00163071095368,0.0592351113698,9.67653885945e-05,0.998242722487,-0.0448013085462,-0.0384499816958,0.183574445472,-1.12047322199,-0.0307395128404,9.40793246408
5689639,-0.00282176164025,0.0601251937726,0.000169967142829,0.998186841151,-0.046462527955,-0.0435031119677,0.184214737978,-1.13675905527,-0.0531596317765,9.40174072357
5689719,-0.00390214861578,0.0605766124712,0.000236815657387,0.998155895227,-0.0449051192315,-0.0482377503766,0.184598913481,-1.15347374004,-0.0740337282846,9.46793636773
5689799,-0.00425225844192,0.0598848030019,0.000255105817717,0.998196204956,-0.0401394634442,-0.0506528433605,0.184403728722,-1.14889792078,-0.0812909425372,9.54045431698
5689879,-0.00341243200647,0.0588724948807,0.000201248627335,0.998259657681,-0.0368543799104,-0.0482706885977,0.184286617866,-1.13035069827,-0.0652945569774,9.54972800278
5689959,-0.00197114938545,0.0589541891511,0.000116410214596,0.998258736301,-0.0365860900359,-0.0379019044493,0.184216351352,-1.13262989406,-0.0377402131903,9.5557710546
5690039,-0.00180487494092,0.0605236523194,0.000109438429176,0.998165125598,-0.039830636603,-0.0308292538374,0.183322811321,-1.17302289859,-0.034854556381,9.63720843964
5690119,-0.00232522553219,0.0608946606243,0.000141857464635,0.998141479706,-0.0439058148505,-0.0274370435931,0.182360997241,-1.18528769301,-0.0450941705962,9.67793058503
5690199,-0.00366180284213,0.0587277229367,0.000215422605823,0.998267298549,-0.0497564422907,-0.0236989572007,0.181358218732,-1.13279152816,-0.0703915524065,9.59414595722
5690282,-0.00556730189788,0.0562571912925,0.000313702460036,0.998400738766,-0.0536925088163,-0.0201790351809,0.181607931749,-1.07854891348,-0.106399535936,9.53956561754
5690359,-0.00507494149117,0.0547850947082,0.000278452941516,0.998485233156,-0.0547770785473,-0.0193441521534,0.183886209867,-1.05414363031,-0.0973585448039,9.57672810222
5690438,-0.00528991814643,0.0558385034638,0.00029584684779,0.998425756264,-0.0550021303244,-0.0192689123984,0.189510077352,-1.07230102316,-0.101271336599,9.5561693833
5690519,-0.00484074614432,0.0570186731056,0.000276465956185,0.998361338224,-0.0551371613907,-0.0179466983609,0.194587158089,-1.08582908069,-0.0918874235415,9.47464172398
5690601,-0.00549904182128,0.0562808991399,0.000309987064968,0.998399782071,-0.0526640396616,-0.0154506096926,0.196782026408,-1.06258187346,-0.10349532766,9.39436108663
5690679,-0.00572277069052,0.0544773502116,0.00031223017853,0.998498558197,-0.0499030964399,-0.0143786465531,0.196396187154,-1.02947993585,-0.107826448305,9.40580832556
5690759,-0.00736197354175,0.0538226836891,0.000396827171536,0.998523290962,-0.0465437702609,-0.0141611587309,0.194461923356,-1.02206862191,-0.13939496078,9.45218099631
5690839,-0.00853838046451,0.0546853106327,0.000467640871134,0.998467022075,-0.0436767944307,-0.0106251455458,0.191172914769,-1.02791690068,-0.160012009427,9.35454843177
5690921,-0.00949265308039,0.0555362840586,0.00052802549707,0.998411404121,-0.041530918871,-0.00637508732751,0.186219679187,-1.03836905276,-0.176931221769,9.30315149803
5690999,-0.0084053116299,0.0545612087351,0.000459304427184,0.998474944241,-0.037263563105,-0.0072305728882,0.180267907408,-1.02788093239,-0.157873488921,9.3757428495
5691078,-0.00755867238761,0.0543413442465,0.000411368052357,0.998493723342,-0.0338517695225,-0.00944662447046,0.177548224463,-1.02829182482,-0.142608126556,9.41810055955
5691158,-0.00799036815716,0.0555730556902,0.000444750745902,0.998422551676,-0.0339331436803,-0.0103505653584,0.178044865003,-1.0529592172,-0.150926581256,9.42819229496
5691238,-0.00941931776593,0.0565017726719,0.000533083515437,0.998357922771,-0.0369617986052,-0.0130213801984,0.178342849328,-1.07661819878,-0.178901990013,9.47949774758
5691318,-0.0109852830976,0.0566670522653,0.000623543370204,0.99833249969,-0.0370762313143,-0.0163266293483,0.179373020045,-1.08339156258,-0.209334184731,9.51028101915
5691399,-0.0116600240494,0.057153114808,0.000667543446264,0.998297109929,-0.0324623002637,-0.0170327086538,0.182545262844,-1.09224398418,-0.222086837743,9.50528780583
5691479,-0.0115430839838,0.05747529748,0.000664585290041,0.998279973614,-0.0292682515718,-0.0144765258069,0.184874298585,-1.09755543714,-0.219682782577,9.49750347451
5691559,-0.0112341635961,0.0585965190171,0.000659457826178,0.998218316123,-0.0273518223567,-0.0133685061602,0.184994649846,-1.11726230037,-0.213451946158,9.48134070775
5691639,-0.0111915419207,0.0585822132505,0.000656794628712,0.998219636303,-0.0244992045818,-0.0165349049254,0.185066860602,-1.12046729233,-0.213304746796,9.51090795493
5691719,-0.0115071929373,0.0591842976075,0.000682286542451,0.998180513691,-0.0232133239783,-0.018009054123,0.185110187055,-1.14010737979,-0.220877872492,9.57796885743
5691799,-0.0107710335071,0.0595213580242,0.000642282745503,0.998168713319,-0.0203133453089,-0.014636643027,0.185987563051,-1.14662418862,-0.20674697496,9.57798281104
5691878,-0.0109808636173,0.0603684050374,0.000664148782984,0.998115542016,-0.0155935276771,-0.0113361261849,0.186513988648,-1.16011108055,-0.210239444742,9.55309148594
5691959,-0.0103790160002,0.0616607046276,0.000641232334,0.998042996245,-0.00935611660623,-0.00850443595682,0.186829844006,-1.18208958534,-0.198209136816,9.52810104391
5692033,-0.00993640981595,0.0625667408461,0.000622940187781,0.99799112353,-0.00561366996374,-0.00510266157409,0.187870737344,-1.19527668822,-0.189075590732,9.49347432508
5692110,-0.0100518987169,0.0630936038841,0.000635508994927,0.997956788949,-0.00592234234702,-0.00306159694445,0.188920963408,-1.20079474828,-0.190538647896,9.45665714265
5692189,-0.0108232023187,0.0624824884865,0.000677624575579,0.997987143078,-0.011641516576,-0.0103507593959,0.188274028862,-1.18160008872,-0.203866330828,9.3972172873
5692269,-0.0123148665162,0.0623777883151,0.000769731816831,0.997976333938,-0.0150730211134,-0.0185554674199,0.188737248258,-1.17726589796,-0.2314953942,9.37783394538
5692350,-0.0119815702746,0.062723876263,0.000753067759768,0.997958711676,-0.014577783467,-0.0281608829104,0.192420700386,-1.19190363545,-0.226764437448,9.44162129252
5692429,-0.0110346058727,0.0636192364051,0.000703481372403,0.997912989868,-0.0130035706948,-0.0347755123277,0.195482151787,-1.21457264758,-0.209800073601,9.48468210413
5692509,-0.0102058577318,0.0632395212271,0.00064674197563,0.997945983081,-0.0107819728471,-0.0408727402853,0.199447472934,-1.20471087859,-0.193635951143,9.46526817971
5692590,-0.0103183141099,0.0644452972999,0.000666387777376,0.997867672578,-0.00646918370828,-0.0466595273672,0.207360636422,-1.22273583379,-0.194950805305,9.42488940514
5692672,-0.0107909782126,0.0660736808695,0.000714603120792,0.997756138958,-0.000901679794735,-0.0505572896778,0.212959914637,-1.25390152103,-0.203880003447,9.42364647634
5692757,-0.0104227669063,0.0654638448398,0.000683818610316,0.997800272269,0.00243882255339,-0.0567271576173,0.209934130644,-1.25344732009,-0.198703035027,9.50933139899
5692841,-0.0103977881611,0.0617004478547,0.000642807868764,0.99804034364,0.00529450408519,-0.0672401193644,0.201733309327,-1.17799686739,-0.197751635469,9.48891630277
5692920,-0.0100790647699,0.0596261595643,0.000602077901061,0.998169710546,0.00871067325012,-0.07567634672,0.196387126475,-1.13943036043,-0.191913552082,9.50132752214
5692999,-0.00798882630081,0.0593833815361,0.000475257477572,0.99820316909,0.0107603747491,-0.0845692936865,0.191476656518,-1.13400754853,-0.152018836816,9.49608498496
5693079,-0.00672700363745,0.0596752534282,0.000402161509768,0.998195096069,0.00986174534114,-0.0911821320508,0.186401924236,-1.13386632355,-0.127363747158,9.44840731178
5693159,-0.00683968890191,0.0599248408228,0.000410614844617,0.998179374413,0.00761980745053,-0.0955755251308,0.182080014683,-1.12875376508,-0.12837242432,9.36617059068
5693239,-0.00670597137795,0.0583159513643,0.000391740627536,0.998275576333,0.00457188447032,-0.0994886311632,0.183318079504,-1.09408276808,-0.125386328127,9.33167260831
5693319,-0.0072242358874,0.0570584723735,0.000412887351252,0.998344615186,0.00274313068219,-0.104816325213,0.18491229852,-1.07232248922,-0.135326258546,9.34952046562
5693399,-0.00712482870687,0.0565418887436,0.000403507082581,0.998374723646,-0.000482571897995,-0.113546912442,0.187145900114,-1.07339211169,-0.134825872315,9.44522333894
5693479,-0.00558281333378,0.0570352464852,0.000318941313018,0.998356505027,-0.00241799344611,-0.119636644902,0.189763131254,-1.08432895232,-0.105795220655,9.45859175239
5693559,-0.00511349305531,0.0573260629337,0.000293623143121,0.998342370373,-0.00485631655936,-0.125418934685,0.19473899043,-1.08825743487,-0.096756535469,9.44434672502
5693639,-0.00429560366938,0.0555845425319,0.000239141097384,0.998444715161,-0.00844776073462,-0.132719519109,0.201130026428,-1.05805338182,-0.081517097551,9.47290983433
5693719,-0.0033945408984,0.0545160047114,0.000185333490194,0.998507109626,-0.0118796974242,-0.13624848964,0.20624171821,-1.04232515165,-0.0647119894876,9.51686275851
5693799,-0.00320119639063,0.0534255930618,0.000171271301005,0.998566687314,-0.0164929998067,-0.135386041528,0.211437183587,-1.03049401189,-0.061572109464,9.60261071419
5693883,-0.00306534832828,0.0522220033421,0.000160298113582,0.998630782778,-0.0188352911747,-0.135294262722,0.214980152875,-1.01142431973,-0.0592093411179,9.64400384062
5693959,-0.00344049057885,0.0516701989979,0.000178009675418,0.998658260804,-0.0176865256268,-0.138219025869,0.216680244386,-0.992799899456,-0.0659319657547,9.56828324676
5694039,-0.00280503952576,0.0508766784176,0.000142896717629,0.998700993755,-0.0161458861751,-0.142102334065,0.215146158924,-0.967499457496,-0.0532061289157,9.47113613458
5694118,-0.00281069247095,0.0499827968422,0.000140662645683,0.998746114006,-0.0147958124426,-0.145709389167,0.212522947401,-0.948967309995,-0.0532320721248,9.45714059798
5694199,-0.00231218802144,0.0479869081555,0.00011108302375,0.99884528236,-0.0156885284489,-0.151279142719,0.206692119873,-0.908399341075,-0.0436708314097,9.43222328457
5694281,-0.0016559215251,0.04609331217,7.64082242427e-05,0.998935763029,-0.0196296785445,-0.155898065035,0.200639482987,-0.871129870759,-0.0312303223321,9.41942767802
5694359,-0.00205904944244,0.043621825974,8.9905267046e-05,0.999045989197,-0.0275283394008,-0.160372178671,0.192751000241,-0.824586751801,-0.0388494873446,9.42443958288
5694439,-0.00205240145374,0.0415912115767,8.54359703024e-05,0.999132599542,-0.0297133955458,-0.164759407098,0.188443600654,-0.784211031793,-0.0386325830318,9.40302586887
5694519,-0.00235750773794,0.0409918633519,9.67201997319e-05,0.999156694389,-0.0276189087411,-0.167391744154,0.186284850964,-0.774829650082,-0.0444879445944,9.42704834603
5694601,-0.00121645548331,0.0401125665357,4.88344913352e-05,0.999194425453,-0.0229566961666,-0.169396836449,0.183712530966,-0.762975896739,-0.0231014642664,9.4874305042
5694679,-0.000299605859351,0.0386025681926,1.15741830345e-05,0.999254598104,-0.0201593686219,-0.172302652072,0.182169138966,-0.738146552447,-0.00572059291533,9.53946153006
5694759,-0.000990404539876,0.0372482803093,3.69165025661e-05,0.999305550545,-0.0159268317263,-0.177877351999,0.18507431432,-0.715348080394,-0.0189946665402,9.58241173371
5694839,-0.0015481213568,0.0365215533951,5.65776096027e-05,0.999331664792,-0.0112588592816,-0.181222171955,0.188094489717,-0.699035375336,-0.0295927325413,9.55096043622
5694921,-0.00112111248701,0.0356007281886,3.99377628866e-05,0.999365463514,-0.00675531556897,-0.183229063929,0.187352454586,-0.678713264997,-0.021346942015,9.51413314528
5694999,-0.00159147719154,0.0346315058746,5.51484024714e-05,0.999398880808,-0.00405318934138,-0.185284579236,0.184353093139,-0.659816234144,-0.0302858373282,9.5090356025
5695078,-0.000600433693835,0.0325280729214,1.95412953249e-05,0.999470641675,-0.00456036391214,-0.187369268543,0.18255347627,-0.621902377205,-0.0114677377485,9.54428430339
5695159,-0.00145694314657,0.031202497735,4.5482459733e-05,0.99951202063,-0.00869587920775,-0.18649163182,0.183176466395,-0.599154063042,-0.0279496172584,9.58698133887
5695241,-0.00255165223004,0.0306534899126,7.82540748382e-05,0.999526811298,-0.012879948631,-0.183410909418,0.184827330654,-0.590293477864,-0.0490914927672,9.61475434165
5695319,-0.00301396977593,0.0309825292704,9.34256829776e-05,0.99951537764,-0.014539010162,-0.177731265423,0.187946299517,-0.59622987456,-0.0579458954162,9.60795496705
5695399,-0.00319516632498,0.0293678968737,9.38762865748e-05,0.999563559126,-0.0142573768962,-0.172620718781,0.189817680835,-0.566512309502,-0.0615825958434,9.63236634205
5695479,-0.00371938835325,0.0276350044712,0.000102825296828,0.999611155453,-0.0136627068753,-0.168703010672,0.191366199687,-0.53288003951,-0.0716654815783,9.63001433526
5695559,-0.00524927583334,0.0259983996987,0.000136520800223,0.999648192955,-0.0111774545554,-0.163798245438,0.192295310998,-0.502645030542,-0.101417809455,9.65637587044
5695638,-0.00623882599957,0.0249146271771,0.000155489319309,0.999670102697,-0.00883492304054,-0.159578316113,0.192001397662,-0.481391563003,-0.120466307011,9.65088439678
5695719,-0.00572772101352,0.0242572031483,0.000138981669256,0.999689332739,-0.00742940413164,-0.154066528088,0.18884521923,-0.464569339657,-0.109629330105,9.56666549646
5695799,-0.00527168401369,0.0226809825314,0.000119599402729,0.999728847276,-0.00743747290922,-0.146502554659,0.184823061864,-0.430533989048,-0.100014681803,9.48309417337
5695879,-0.00493805149812,0.0217056880415,0.000107210371767,0.999752202928,-0.00914507442161,-0.141112790478,0.181558387321,-0.411309879513,-0.0935276323241,9.46742788341
5695959,-0.00507302160423,0.0207898510704,0.000105491522085,0.999770991485,-0.0152779160666,-0.138730312092,0.178322512411,-0.394987010471,-0.0963391672851,9.49274403352
5696038,-0.00513599131821,0.0205868505929,0.000105757695075,0.999774870654,-0.0223631415453,-0.138152205184,0.176380987465,-0.392136473861,-0.0977866680957,9.51727111005
5696118,-0.00440374008454,0.0192490370692,8.47842875217e-05,0.999805018219,-0.0300197973242,-0.136528270855,0.176493142682,-0.366484135293,-0.083811118289,9.51379142335
5696198,-0.00499886799076,0.0196134966234,9.80653705961e-05,0.999795135241,-0.0329110305457,-0.132574079827,0.180391646365,-0.373119387426,-0.0950582420183,9.50571810719
5696281,-0.00471508192752,0.0200102827248,9.4370067412e-05,0.999788651507,-0.0329430102327,-0.128924495026,0.184859198882,-0.381410101694,-0.0898355079551,9.52409787359
5696359,-0.00474038090381,0.0200141859697,9.48949396497e-05,0.999788453696,-0.0287052974303,-0.123754913715,0.190519560823,-0.385426849591,-0.0912508506715,9.62251409403
5696439,-0.00359475992859,0.0191230174603,6.87556741399e-05,0.999810673666,-0.0248855995645,-0.119376094744,0.19476715811,-0.370359226209,-0.0695945606959,9.6779725238
5696518,-0.00313512442519,0.0178944250788,5.61105093326e-05,0.999834965081,-0.023445160968,-0.114620353054,0.197315716482,-0.345038080892,-0.0604315093667,9.63606964953
5696600,-0.0023484235405,0.017885987043,4.20107092488e-05,0.999837274065,-0.0259864183017,-0.107084317364,0.195013640953,-0.34373176333,-0.0451174517626,9.60422416033
5696678,-0.00170525314753,0.017889653158,3.05113145455e-05,0.999838512706,-0.0300653130707,-0.100859935704,0.191503945327,-0.344384493789,-0.032816555042,9.62055105137
5696759,-0.0014932175069,0.0173690672767,2.59397373715e-05,0.999848031018,-0.0393236909155,-0.0962739265853,0.185141227338,-0.334959905258,-0.0287878993338,9.63800863131
5696838,-0.00191481035523,0.0168722209788,3.23117621585e-05,0.999855819914,-0.0482842381141,-0.0930966310525,0.180472216421,-0.327389790811,-0.0371446133796,9.69780373347
5696920,-0.0020200556027,0.0159553069271,3.2234776239e-05,0.999870664895,-0.056214706802,-0.0890618034255,0.180650640301,-0.308482512182,-0.0390461796488,9.66329126596
5696999,-0.00188554939605,0.0159403602592,3.0060209435e-05,0.999871166058,-0.058418847646,-0.0845124565421,0.18671735549,-0.307433212143,-0.0363563967541,9.6394713233
5697079,-0.00103384143374,0.0157497941412,1.62848183609e-05,0.999875429687,-0.0576128818451,-0.0813571583505,0.19248583491,-0.30321232963,-0.0198984767244,9.62230631571
5697159,-0.000787625301714,0.0154173150066,1.21445145744e-05,0.999880835848,-0.0528724017499,-0.0794639794356,0.199778133116,-0.294694295971,-0.0150515481928,9.55382821081
5697240,-0.00205253055829,0.0158960424566,3.26313046274e-05,0.999871542693,-0.0474739733241,-0.0774766919637,0.2045792021,-0.301793904243,-0.0389584496676,9.48903875144
5697319,-0.00252253667072,0.015418968476,3.88996615795e-05,0.999877937904,-0.0412550858383,-0.0779870797264,0.203628632938,-0.289294257585,-0.0473170864021,9.37762076551
5697399,-0.00473665123065,0.0150041168566,7.10780673194e-05,0.999876210118,-0.0383751334698,-0.0821245229372,0.196672940519,-0.280357948594,-0.0884847135112,9.33902155355
5697479,-0.00573189678197,0.0149049400828,8.54444737805e-05,0.999872482279,-0.0370728521101,-0.0850326789251,0.189519694637,-0.278826885856,-0.107199785626,9.34962026977
5697559,-0.00657884676739,0.0151166788296,9.94638319587e-05,0.999864088216,-0.0358657932328,-0.085926192395,0.182247916677,-0.284851433027,-0.123935492714,9.41751048218
5697640,-0.00662176997163,0.0148326069219,9.82310717795e-05,0.999868059438,-0.0342901777836,-0.0868879905383,0.178310539963,-0.282480657179,-0.126076051488,9.51809965112
5697719,-0.00741595058075,0.0150514058735,0.000111636199022,0.999859213287,-0.0320677383296,-0.0904448998546,0.177650874181,-0.29015615798,-0.142922697543,9.63423805117
5697799,-0.00855071372064,0.015648737817,0.000133829158735,0.999840979551,-0.0260516839812,-0.0913019752599,0.184066115695,-0.303380584436,-0.165719953975,9.68811936024
5697883,-0.0090450414147,0.0158114114177,0.000143038605601,0.999834069251,-0.0186108408189,-0.0905391503188,0.191320781094,-0.307005677322,-0.175567585178,9.7027310534
5697964,-0.0101185999004,0.015935562498,0.000161274319058,0.999821807011,-0.0111665044914,-0.090932835477,0.197802030642,-0.307025951559,-0.194883693197,9.62722217086
5698041,-0.00944340526245,0.0154474614384,0.000145900555396,0.999836074937,-0.00669990269482,-0.0920204266949,0.200839400247,-0.295545948133,-0.180615980078,9.56060844656
5698113,-0.0104470224348,0.0149827096366,0.000156550822194,0.999833162896,-0.00742546210859,-0.0926729814256,0.198830611457,-0.285306063753,-0.198870410801,9.51537296833
5698189,-0.0112455452755,0.014898237594,0.000167568002288,0.999825760895,-0.00828648781831,-0.0922131341411,0.194645507753,-0.282514015449,-0.213174951559,9.47530299242
5698269,-0.0120001798734,0.0144921502505,0.000173939204679,0.999822955832,-0.01050586349,-0.0910858456475,0.185749094609,-0.276289803312,-0.228700860828,9.52596009868
5698349,-0.0108852925409,0.0132062185619,0.000143774610779,0.999853532037,-0.0169457696305,-0.0904094725513,0.177431416292,-0.253401662749,-0.208807146135,9.58867608484
5698429,-0.00933467931827,0.0128323106643,0.000119800589933,0.999874082679,-0.0212354033763,-0.0887265785092,0.173292189425,-0.247330223724,-0.179872085533,9.63253060086
5698509,-0.00916849716023,0.0125528916066,0.000115105059438,0.999879167861,-0.0208293531936,-0.0877168420839,0.176768314165,-0.243208519976,-0.17759451963,9.68302474723
5698590,-0.0083418954501,0.0132745570444,0.000110748579587,0.999877085771,-0.0188829628381,-0.0875366902903,0.182685199562,-0.257255489183,-0.161623349962,9.6855484958
5698672,-0.00723937006981,0.013185558492,9.54659389635e-05,0.999886855326,-0.0189921988092,-0.0861515290297,0.191343611538,-0.252994401908,-0.13887253903,9.58985815754
5698757,-0.00591403236055,0.0120783038053,7.14379402152e-05,0.999909562758,-0.022888950945,-0.083191981966,0.196538658723,-0.228889934602,-0.11205394334,9.47234949291
5698839,-0.00569673796792,0.0115813455904,6.59813871193e-05,0.99991670416,-0.0269297624723,-0.0818419437892,0.199229996973,-0.218976237373,-0.10769437406,9.45116484834
5698919,-0.00571104839459,0.0132563061561,7.57152940981e-05,0.999895818843,-0.0344625301263,-0.0857145115593,0.200419109862,-0.252292926261,-0.108669934983,9.51267431305
5698998,-0.00419903531918,0.0131439754739,5.51972722532e-05,0.99990479595,-0.0436647813947,-0.0910178826515,0.19985550741,-0.253608166646,-0.0810036919469,9.64439037763
5699079,-0.00314558176097,0.0119706191205,3.76574456898e-05,0.999923401154,-0.0496118222172,-0.0937742152454,0.199091655878,-0.232370655603,-0.061052063801,9.70354814259
5699158,-0.00180411758923,0.0103367802914,1.86497938785e-05,0.999944946377,-0.0502002162805,-0.0941509446174,0.199910415143,-0.201671636526,-0.0351947172845,9.75340801153
5699239,-0.00129864990408,0.00944434165502,1.22654507529e-05,0.999954557852,-0.0479991123497,-0.0943769822405,0.20253012101,-0.184928166242,-0.025426393359,9.78907001688
5699320,-0.00159551675391,0.0103975345277,1.6590358464e-05,0.999944671133,-0.043698619561,-0.0945126048144,0.203676254468,-0.202415403163,-0.0310575669724,9.7321768258
5699399,-0.00118985591071,0.0091493072507,1.08868206951e-05,0.999957436245,-0.0398412537034,-0.0933169081744,0.199255653805,-0.174600518753,-0.0227046830057,9.54050244192
5699479,-0.00222417727342,0.00831064078384,1.84850224474e-05,0.999962992287,-0.035824073943,-0.0943022504362,0.194049153039,-0.156475067111,-0.0418743893933,9.41304796295
5699559,-0.00292657698499,0.0067034806297,1.9618776958e-05,0.999973248697,-0.0308596257179,-0.102130186838,0.189222492333,-0.125009661849,-0.0545733140559,9.32340716644
5699639,-0.00331968164974,0.00685473833957,2.2756209113e-05,0.999970995458,-0.0278809567829,-0.109381089048,0.185900805849,-0.127438813467,-0.0617138285214,9.29476180597
5699719,-0.00299341739116,0.00690951675206,2.06836540248e-05,0.999971648399,-0.0282222057292,-0.11543439062,0.183056413835,-0.129135724603,-0.0559424902281,9.34389397567
5699799,-0.00344979049968,0.00671202675579,2.31557455384e-05,0.999971523148,-0.0309810954658,-0.123323272178,0.183052538872,-0.126801988961,-0.0651689560509,9.44495990713
5699879,-0.00368307001933,0.00689193203049,2.5384243285e-05,0.999969467346,-0.0326364293077,-0.13018505142,0.186030044325,-0.131866092058,-0.0704654153786,9.56569392768
5699959,-0.00562574881842,0.00627010175554,3.52752692102e-05,0.999964517135,-0.0293727289983,-0.134302118965,0.192924828334,-0.120778764122,-0.108359215047,9.62999405436
5700039,-0.00664623560416,0.0071559106902,4.75621367439e-05,0.999952307979,-0.0244346783823,-0.135920979369,0.197487388801,-0.138068383961,-0.128222452857,9.64535037427
5700119,-0.00688884860572,0.00629911346997,4.33955297631e-05,0.999956430576,-0.0172149473982,-0.134763845304,0.198096474774,-0.121148256939,-0.13247895023,9.61458099849
5700198,-0.00726217690511,0.00429172376455,3.11683661818e-05,0.999964419828,-0.0128831088077,-0.133218184742,0.194630715805,-0.0817869204722,-0.138384730978,9.52692694504
5700279,-0.00702316682103,0.00370764922244,2.60402602244e-05,0.999968463396,-0.0119867658992,-0.131439408282,0.190422810116,-0.0703805470587,-0.13330907345,9.48989682376
5700359,-0.00770909295161,0.00429085033267,3.3079851592e-05,0.99996107794,-0.0157058607688,-0.132500592714,0.183641166088,-0.0819720757938,-0.14726251072,9.55027870827
5700439,-0.0085259389147,0.00457247441831,3.89864622019e-05,0.999953198566,-0.0200657679978,-0.136542823864,0.178295109487,-0.0879693123708,-0.164014278893,9.61739304039
5700518,-0.00870317931589,0.00323500189431,2.81560152838e-05,0.999956893391,-0.0235330924582,-0.143225063169,0.174236095403,-0.0628372343951,-0.16903751631,9.71009465602
5700600,-0.00892696152419,0.000620904839817,5.54301555147e-06,0.999959961101,-0.0213565865198,-0.144680266383,0.174780517383,-0.0120843828734,-0.173727399923,9.72932376017
5700679,-0.00849530262702,-0.000698874764327,-5.93736832578e-06,0.999963670026,-0.0174965425879,-0.143424938004,0.177235620878,0.0135789247193,-0.165049162122,9.71308848339
5700759,-0.00698900015233,2.45637227212e-05,1.71680054896e-07,0.999975576338,-0.0130520659215,-0.141394670793,0.181688513406,-0.000471771144977,-0.134224261677,9.60183316694
5700838,-0.00578516236723,0.000518615583855,3.00032597032e-06,0.99998313132,-0.0129395202905,-0.141027890589,0.184360248922,-0.00985986932761,-0.109983237426,9.50515245632
5700920,-0.00582923464556,-0.00174874943437,-1.01940595758e-05,0.999981480726,-0.0205344140181,-0.142936272773,0.184686220048,0.032870145298,-0.109564412671,9.39734463541
5700999,-0.00664603309042,-0.00324081170509,-2.15391306452e-05,0.999972663086,-0.028071180685,-0.146635442453,0.184456112662,0.0606629355675,-0.124396588276,9.35803848047
5701079,-0.00662770054728,-0.00246929657882,-1.63661676434e-05,0.999974987633,-0.0330189307465,-0.150557704507,0.185595118414,0.0464534083131,-0.124676767663,9.40508373647
5701158,-0.00525826156917,-0.00275710039222,-1.44978105691e-05,0.999982374281,-0.0385417211523,-0.158870722599,0.187129901989,0.0525323220875,-0.100184598195,9.52596649433
5701239,-0.00376502543809,-0.00278158206934,-1.04728419941e-05,0.999989043577,-0.0427067755186,-0.166838363885,0.188902152256,0.0537854686919,-0.0728000277161,9.66768857701
5701319,-0.00311549066722,-0.0045767099292,-1.42589156103e-05,0.999984673503,-0.0435030478926,-0.17247032878,0.194222403032,0.0894927008929,-0.0609182685828,9.77642442306
5701399,-0.00297727731846,-0.00696370920939,-2.07334881042e-05,0.999971320661,-0.0405752908253,-0.169038466733,0.199968693866,0.135337897147,-0.0578593559251,9.71644918387
5701478,-0.00224311420089,-0.00740021194172,-1.66000168022e-05,0.999970102066,-0.0392443266463,-0.163148138952,0.202565088243,0.14297314112,-0.0433347395316,9.65915564557
5701558,-0.00104859551768,-0.0099118476567,-1.03940353321e-05,0.999950326574,-0.0427026487536,-0.160039632345,0.200291714316,0.189213396391,-0.0200153395686,9.54337666615
5701639,-0.00234996628873,-0.0113977938601,-2.67862452661e-05,0.999932281325,-0.0469060923253,-0.16115435881,0.197650619776,0.215042188225,-0.0443309261533,9.43153190912
5701719,-0.00402066867096,-0.0126565897328,-5.08924416531e-05,0.999911817297,-0.0498538485297,-0.168208545612,0.196065963052,0.236764387642,-0.0752008493931,9.35077810543
5701798,-0.00489240454254,-0.0147875681794,-7.23555434651e-05,0.999878686126,-0.050345432068,-0.178826408615,0.195540859079,0.279006967546,-0.092286282341,9.43017619187
5701878,-0.00476427906965,-0.015558974387,-7.41371118844e-05,0.999867598467,-0.0502146921295,-0.187751266785,0.196077176818,0.297409330674,-0.0910453741409,9.5534718162
5701959,-0.00552916775631,-0.0164439031112,-9.0934784763e-05,0.999849497717,-0.0463050376133,-0.19097773138,0.197250347584,0.317069874528,-0.10658140051,9.63630773694
5702039,-0.00540887779916,-0.0166089514675,-8.98494974035e-05,0.99984742771,-0.0405537244118,-0.190359469768,0.197102869921,0.321444175693,-0.104650268529,9.67212291975
5702118,-0.00692076244929,-0.016447942713,-0.000113850433275,0.999840764955,-0.0311432756305,-0.18658299231,0.195737313139,0.318322672408,-0.133897950424,9.67158537416
5702198,-0.00818937281648,-0.0161457005294,-0.000132244835539,0.999836103088,-0.0237942461158,-0.183891415773,0.193215218823,0.311900787283,-0.158150324209,9.65354575453
5702279,-0.00930435516799,-0.0165274808951,-0.000153805220661,0.999820107666,-0.0164049979768,-0.180999399666,0.187019371558,0.316666782184,-0.178208412299,9.5740083951
5702359,-0.0111994981552,-0.01822530441,-0.00020416098378,0.999771157735,-0.00771454847878,-0.179689880064,0.180322032769,0.347538538549,-0.213467021256,9.52676481977
5702438,-0.0107330481913,-0.0207397672665,-0.000222661648084,0.999727269885,-0.00164889865703,-0.181458308671,0.175026559311,0.395749692953,-0.204694665879,9.53193749782
5702518,-0.0109330880463,-0.0223938148813,-0.000244909615264,0.999689414098,-0.000989339194219,-0.187201956512,0.167592374621,0.434253192237,-0.211881101285,9.68563638907
5702601,-0.0113743316421,-0.0240959090397,-0.000274172217752,0.999644905242,-0.00485050413115,-0.189371075032,0.162280483685,0.47100224127,-0.222178466679,9.7618145727
5702679,-0.0110309253145,-0.0264633260159,-0.000292035034772,0.999588878379,-0.00801858321624,-0.183010125037,0.162073179553,0.517233107457,-0.215428196951,9.75939802951
5702759,-0.0111677512175,-0.0268459988605,-0.000299936263771,0.999577152458,-0.00736529029851,-0.173659584242,0.164077247381,0.520071929904,-0.216166438434,9.67271452449
5702839,-0.010603128983,-0.0253785598725,-0.000269193995064,0.999621643368,-0.0078246946708,-0.168474949826,0.164428307955,0.487298719466,-0.203441274193,9.58862211924
5702921,-0.0101447811507,-0.025969749029,-0.000263559887919,0.999611217468,-0.0136343080932,-0.168343999606,0.163787564177,0.491816229971,-0.191975452993,9.4570032398
5702999,-0.00810043167457,-0.0271651123306,-0.000220137606401,0.999598114853,-0.0196742165154,-0.168691119536,0.164254498033,0.51032846723,-0.152055977362,9.3811443743
5703079,-0.00787365930842,-0.0287219782871,-0.000226247434438,0.999556402743,-0.0267036820604,-0.16762232131,0.166237418592,0.539392322037,-0.147736745597,9.37680932356
5703159,-0.00784676990534,-0.0309769842414,-0.000243193474557,0.999489267329,-0.0330498116947,-0.16868380262,0.167001480866,0.591546558994,-0.149694189692,9.53294386318
5703239,-0.00801490267363,-0.0315582255893,-0.00025307029787,0.99946974726,-0.0372831795368,-0.169320691406,0.167459918231,0.615417076021,-0.156135899802,9.73436366166
5703319,-0.00666520716382,-0.0325982671618,-0.000217394578005,0.999446287067,-0.0368433698118,-0.165445924063,0.17071481108,0.645062276863,-0.131749346277,9.87724219602
5703400,-0.00569517563847,-0.033824791077,-0.00019275155414,0.999411532518,-0.0344510336695,-0.159289853104,0.174796197096,0.672186783842,-0.113047271341,9.91843716575
5703478,-0.0050847109886,-0.0330395617797,-0.000168090569294,0.999441096222,-0.0296101114924,-0.147082409299,0.180224859137,0.649914841301,-0.0999106650505,9.81865566127
5703559,-0.003086921071,-0.0341205182721,-0.000105389215261,0.99941295271,-0.0301110786778,-0.13507535234,0.183907746422,0.663366734371,-0.0599463990303,9.70372012039
5703639,-0.00294552308186,-0.0346776477336,-0.000102205727685,0.999394203603,-0.0333914894193,-0.126594047981,0.186117478794,0.666649466892,-0.0565579736955,9.59453620798
5703719,-0.00336480672557,-0.0360238228126,-0.000121292616477,0.999345259434,-0.0404680166018,-0.121930955426,0.188294698339,0.682026635702,-0.0636228848033,9.44762300408
5703799,-0.00505464310175,-0.0382856283016,-0.000193664654308,0.999254033638,-0.0464166931571,-0.121687240262,0.189601030067,0.719983356909,-0.0949163102277,9.38150173702
5703879,-0.00523378083233,-0.0414112917915,-0.000216926687046,0.999128452899,-0.0474317587215,-0.12622360184,0.192087589349,0.783458817856,-0.0988483151893,9.43448458103
5703961,-0.00518345060188,-0.0422874560283,-0.000219394145959,0.999092015166,-0.0408040670153,-0.128519728725,0.192728144796,0.811488447452,-0.0992921568382,9.56850669833
5704039,-0.00481988541863,-0.041746439892,-0.000201390967459,0.999116591246,-0.0338476215613,-0.127343264488,0.191835407879,0.807716090932,-0.0930941173451,9.6482017082
5704114,-0.00423401605593,-0.0410915827492,-0.000174131059746,0.999146397989,-0.0254168536744,-0.118123584716,0.189171315422,0.792045147723,-0.0814744281707,9.61270049636
5704190,-0.00309718797776,-0.0388344158829,-0.000120368863731,0.999240852388,-0.0199327028807,-0.109611946423,0.185870099702,0.743138254406,-0.0591797240411,9.54614935787
5704269,-0.00321928250107,-0.0354182350585,-0.000114093481497,0.999367385814,-0.0230275633264,-0.101950823078,0.179206779593,0.670698488532,-0.0608863720223,9.45019435594
5704349,-0.00383055067892,-0.0336767543508,-0.000129074676918,0.999425428152,-0.0304184503929,-0.0977798391324,0.173506027283,0.63130477183,-0.0717265876177,9.35670832987
5704429,-0.00589113967766,-0.0351438228487,-0.000207168746234,0.999364879946,-0.0420897136776,-0.0999598394413,0.166680055405,0.65746793634,-0.110073599055,9.33581147863
5704509,-0.00728880471409,-0.0384275715948,-0.000280305564492,0.999234765456,-0.0473897114026,-0.105524740241,0.159604641847,0.73302087655,-0.138827889902,9.51528834104
5704589,-0.00930144005119,-0.0398217871678,-0.000370710088933,0.999163435607,-0.0471641895459,-0.108863680721,0.154082323529,0.774043077688,-0.180501321343,9.69360340745
5704669,-0.00999321696932,-0.0406239491754,-0.000406319691734,0.999124449342,-0.0376636950797,-0.110441354948,0.150343242476,0.802726541193,-0.197125674398,9.85302546366
5704750,-0.00868440986601,-0.0411958684767,-0.000358079321488,0.999113283479,-0.0260037375395,-0.110536579361,0.148525483906,0.818021257968,-0.172144941992,9.90127350452
5704831,-0.00807312096389,-0.0399350927954,-0.00032266877586,0.999169609709,-0.0100682717247,-0.104208363087,0.149563279071,0.786975500142,-0.158832443711,9.82798991814
5704916,-0.00770142504792,-0.0376845467146,-0.000290439647349,0.999259965492,-0.00391251272751,-0.0953031525845,0.15018595617,0.729801398718,-0.148929583414,9.66095780098
5704999,-0.00759132090257,-0.0361060843952,-0.000274279632423,0.999319091826,-0.00532733806674,-0.0899600262833,0.151410942553,0.687835492551,-0.144424388232,9.50519305217
5705079,-0.00821984767867,-0.0376041914931,-0.000309329983919,0.999258856954,-0.015115724561,-0.0901596709942,0.156402834997,0.707427519896,-0.154410539922,9.38467972412
5705158,-0.01012966982,-0.0418493443231,-0.000424313594885,0.999072490927,-0.0239685868878,-0.0945363584354,0.161952110832,0.784783861791,-0.189611491189,9.34924243286
5705239,-0.010320038257,-0.0436997295104,-0.000451438244052,0.998991304594,-0.0292803042838,-0.0984394410845,0.165707366395,0.824015061948,-0.194212070495,9.39860900708
5705319,-0.00939614713366,-0.0440193237712,-0.000414031702771,0.99898640638,-0.0316159545985,-0.104612501227,0.169237589917,0.84707494171,-0.180452426623,9.59151350483
5705399,-0.00824691462122,-0.0432187448681,-0.000356766816337,0.999031531639,-0.0321659646644,-0.109593407497,0.173058484276,0.84630623944,-0.161183312663,9.76184400134
5705479,-0.00761595909431,-0.0433219329346,-0.000330257731956,0.999032080678,-0.0273876899664,-0.110453500952,0.177479471198,0.851351681896,-0.149382424121,9.79676523259
5705558,-0.00733049371418,-0.0395975461872,-0.000290505227695,0.999188777862,-0.021115204656,-0.106286966349,0.17970637329,0.772497250593,-0.142780731328,9.73009019058
5705639,-0.00684429518731,-0.0372867394085,-0.000255385038104,0.999281136351,-0.019480163777,-0.102935665464,0.181042514546,0.722072129653,-0.13235537117,9.66135474545
5705719,-0.00601155871126,-0.0383017641419,-0.000230426559588,0.999248108794,-0.0291413907861,-0.102201955117,0.18226988936,0.735870367635,-0.115326247604,9.58420045347
5705799,-0.00526711780108,-0.0393549301505,-0.000207450650606,0.999211391001,-0.0400464077292,-0.102187418971,0.183857694372,0.752529016235,-0.100559790311,9.53790787828
5705879,-0.0063673663408,-0.0440547060582,-0.00028079077539,0.999008789089,-0.0529747688169,-0.102178697283,0.186938827686,0.838180977857,-0.120909176188,9.48427495524
5705959,-0.00574893951356,-0.0464112064988,-0.000267107477086,0.998905840537,-0.062008855654,-0.106004674823,0.189213197736,0.889093314497,-0.109895051611,9.54666616699
5706039,-0.00537087757503,-0.0474566617593,-0.0002551751197,0.998858825768,-0.0670036176947,-0.112557161962,0.191003509828,0.918922455983,-0.103765417197,9.64826549854
5706118,-0.00483974208324,-0.0488870731875,-0.000236886852455,0.998792558471,-0.0670206444889,-0.119894174737,0.192077697083,0.957649495319,-0.0945809727305,9.75878507183
5706198,-0.00497705453227,-0.0495481768548,-0.000246910318974,0.998759303403,-0.0636253400738,-0.121316551972,0.191445139251,0.977294416429,-0.097928852193,9.8250968158
5706279,-0.00636322724194,-0.0497738004748,-0.000317121514314,0.998740195226,-0.0509459058881,-0.115358937329,0.188511464184,0.973279638139,-0.124119016638,9.73966711536
5706359,-0.00519212282184,-0.0493687573429,-0.00025664507174,0.998767090864,-0.0369528944548,-0.109655918236,0.183345738652,0.951717157883,-0.0998499475805,9.60293629583
5706439,-0.00433894258827,-0.0487230390079,-0.0002116598511,0.998802880576,-0.0298341577792,-0.105382726658,0.177266472902,0.933033585746,-0.0828943044858,9.54029083755
5706518,-0.00371299553022,-0.0500428601392,-0.0001860433023,0.998740151992,-0.0362051673104,-0.103670191834,0.167659252592,0.946962559895,-0.0700872968028,9.42561026913
5706601,-0.00556512692334,-0.0508939568479,-0.000283603270343,0.99868851705,-0.0459874338896,-0.104345431185,0.161469230344,0.954122843554,-0.10406220108,9.33645121397
5706679,-0.00881719290351,-0.0534857874597,-0.000472288972929,0.998529571216,-0.0552623143288,-0.10602764498,0.160309357364,0.998881021806,-0.164190891204,9.29588446984
5706759,-0.0101734879756,-0.0549921632509,-0.000560339154913,0.998434799145,-0.0591244823464,-0.105759903073,0.159613433576,1.03914345805,-0.191648979303,9.40274667433
5706838,-0.0102307963601,-0.0552275906336,-0.000565915692092,0.998421215609,-0.0605904030341,-0.107727708236,0.159195879304,1.05827309632,-0.195434563363,9.53461990401
5706920,-0.0105310764241,-0.0552790853097,-0.000583072305301,0.99841523385,-0.0550846045248,-0.112739601887,0.159796726863,1.07884884558,-0.204888518779,9.71070900906
5706999,-0.0101213802873,-0.0555612391656,-0.000563255487602,0.998403820659,-0.0458214645587,-0.114043977831,0.16058292546,1.0935884968,-0.198589883729,9.79313871598
5707079,-0.0109538961718,-0.0548948144469,-0.000602256511379,0.998431874888,-0.0317497793499,-0.108015562415,0.161054644618,1.08160273309,-0.215161416809,9.80404989341
5707159,-0.00965634605026,-0.0536666449493,-0.00051899591863,0.998512081471,-0.023732458286,-0.0980131622429,0.160911986052,1.04520201461,-0.187515370593,9.69352013868
5707240,-0.00905715800366,-0.0519427916305,-0.000471109441392,0.998608878562,-0.0219018960779,-0.0898832718325,0.16040070085,1.00085608792,-0.174040205022,9.59320462227
5707319,-0.00882497841902,-0.0533283027198,-0.000471310211009,0.998537926046,-0.0280402897979,-0.087559477955,0.158391169484,1.01734416178,-0.167870467007,9.49590518669
5707393,-0.00945893908431,-0.0543277610494,-0.000514666190513,0.998478221079,-0.0338517763372,-0.0899964121816,0.157611140725,1.02987062793,-0.178773254326,9.43417364302
5707471,-0.0111322696887,-0.0584824975446,-0.000652199840028,0.99822614907,-0.0377643583223,-0.0944384031479,0.158845883716,1.1044241541,-0.209496363484,9.3909097925
5707549,-0.0123006681079,-0.0617294518927,-0.000760822341583,0.998016828256,-0.0401119075133,-0.0958265275432,0.159161039449,1.1640003201,-0.231042691137,9.37069756618
5707630,-0.0104633643508,-0.0618824131785,-0.000648777372993,0.998028388391,-0.0410947469665,-0.0958080220575,0.158073062704,1.17700110392,-0.19824123602,9.45266235562
5707710,-0.0119272889643,-0.059477569794,-0.000710715206534,0.998158130435,-0.0382789301467,-0.100905199504,0.155717516412,1.15008565015,-0.229796278477,9.61341102666
5707792,-0.011897144172,-0.0577952930922,-0.000688799287439,0.998257325349,-0.0370151301162,-0.104814886094,0.153452808513,1.12842971406,-0.231491051999,9.70986022927
5707870,-0.0120109720991,-0.0579323785947,-0.000697045399256,0.99824801036,-0.0396623705897,-0.102478107373,0.152093983774,1.12764658088,-0.232986756443,9.67986254992
5707950,-0.0124775628232,-0.0580741563663,-0.000725905863459,0.998234028597,-0.0416764049352,-0.0980962097092,0.151278688931,1.12143061698,-0.240109103427,9.60248774113
5708030,-0.0113254687881,-0.0575227107516,-0.000652594295017,0.998279743171,-0.0445875857884,-0.0937643108654,0.149086751779,1.0990262657,-0.215652091695,9.50243273867
5708110,-0.012120870034,-0.0587628235549,-0.000713542257815,0.998198129599,-0.0544224054681,-0.0915908616206,0.149048659672,1.11527175551,-0.229229464245,9.43689307338
5708190,-0.0132816243519,-0.0602956839845,-0.000802355621861,0.99809187211,-0.0671343382593,-0.092415242381,0.150728564654,1.1384265787,-0.249825736408,9.38464058524
5708270,-0.0142918695931,-0.0620402078877,-0.000888473340355,0.997970924268,-0.0807211587945,-0.0975924615134,0.155993408257,1.16668468257,-0.267690163525,9.34347286555
5708350,-0.0140847317297,-0.0629247527656,-0.000888126909411,0.997918487178,-0.0854677306239,-0.102401553239,0.160003694542,1.18770968772,-0.264761870332,9.37671191391
5708430,-0.013117678866,-0.0610320767887,-0.000802163979821,0.998049281667,-0.0802275625537,-0.108266838704,0.164964006682,1.17135485072,-0.250794465949,9.53839208121
5708510,-0.0115169912565,-0.0577774426774,-0.000666580264062,0.998262831974,-0.0745293213429,-0.110508939799,0.172197094581,1.13592399075,-0.225654611698,9.7776157602
5708590,-0.0104186683634,-0.0569508110724,-0.000594348666457,0.998322444512,-0.0711103766164,-0.109725750148,0.179091087689,1.13645270988,-0.207218816824,9.92617779108
5708670,-0.00981189875923,-0.0568203196679,-0.000558444448436,0.998336048661,-0.0648021091659,-0.108830146297,0.186207313984,1.12575661372,-0.193763138239,9.85586117904
5708750,-0.00871744895062,-0.0567282699052,-0.000495342382129,0.998351473236,-0.0576116282038,-0.107867093924,0.191328429884,1.11694475437,-0.171085100961,9.79523585904
5708830,-0.00862747713608,-0.0588350992141,-0.000508498360951,0.998230303672,-0.0524459595037,-0.107289262501,0.198232309977,1.15140138631,-0.168252186065,9.73228502861
5708910,-0.0078153549877,-0.0625280895331,-0.000489652408335,0.998012484133,-0.0557319092056,-0.1107737742,0.206205848586,1.21660751636,-0.151468966668,9.66985425325
5708990,-0.00939591195339,-0.0648228196534,-0.000610380379079,0.997852367,-0.0594062392725,-0.114141551404,0.212692731997,1.25501293389,-0.181142782589,9.61707289741
5709070,-0.0108856383165,-0.0667929298468,-0.000728754557783,0.997707209715,-0.0620365273742,-0.116162217726,0.217861932228,1.27494372225,-0.20684793762,9.47718616886
5709150,-0.0121540571788,-0.0668909106966,-0.000814881644057,0.997685933011,-0.0640403902966,-0.116523237396,0.220537762305,1.26726974165,-0.229214215453,9.40546456021
5709230,-0.0130955810323,-0.0667870869624,-0.00087664872594,0.997680922069,-0.0648170179886,-0.119293989567,0.21873773986,1.26027115163,-0.245985864477,9.36769883866
5709310,-0.0113159361838,-0.0680136592583,-0.000771474401766,0.997619915885,-0.0644316144809,-0.120105060747,0.209143925164,1.29174560235,-0.213910904672,9.42716052268
5709390,-0.0121470316857,-0.0687748922154,-0.000837455946662,0.997557899317,-0.0633489922533,-0.119740323332,0.199982115854,1.31589751644,-0.23129721419,9.4951592555
5709470,-0.0126898152983,-0.0689052533683,-0.000876549398095,0.997542112548,-0.060145278548,-0.119521480883,0.191930889899,1.3267973624,-0.243165520897,9.55511210848
5709550,-0.0132162688965,-0.0694181149701,-0.000919748139313,0.997499679004,-0.0560946000175,-0.118538795291,0.186674464265,1.34387175729,-0.254596067909,9.60520961006
5709630,-0.013238721125,-0.0703365025741,-0.000933559894646,0.997435031034,-0.0485559121617,-0.116672113751,0.181817848639,1.36034131853,-0.254750631468,9.59408784245
5709710,-0.0136220846896,-0.0706429784428,-0.000964805236568,0.997408180013,-0.0397757988336,-0.113849344581,0.180180949448,1.36830769395,-0.262504814916,9.60752607583
5709790,-0.0154830159208,-0.0720947195376,-0.00111929154367,0.997276979991,-0.0340820407752,-0.112155683079,0.180475880117,1.39415649381,-0.297803106235,9.58757685644
5709870,-0.0157188666379,-0.0748117497096,-0.00117940794848,0.997073080739,-0.0336456163705,-0.111990866301,0.183632668949,1.44557879863,-0.301983249239,9.5741708038
5709950,-0.0166437349059,-0.0756507510417,-0.00126290650734,0.996994661481,-0.0338094517891,-0.111040596111,0.186378122371,1.46230639173,-0.319814225666,9.57498571837
5710030,-0.015684563065,-0.0770001066581,-0.00121146010918,0.996906971799,-0.0339077530402,-0.109193363813,0.188025394424,1.47761019124,-0.299148769775,9.50340919713
5710110,-0.0151132723021,-0.0780098560004,-0.00118272477003,0.996837325008,-0.0322639735451,-0.105530884065,0.191142207964,1.49684811792,-0.288186017236,9.50068587228
5710190,-0.0147675010631,-0.0788224291512,-0.00116777216492,0.99677860224,-0.0304263257251,-0.103333396217,0.193437986149,1.51270043691,-0.281608365713,9.50072781854
5710270,-0.0145609200245,-0.0777322775629,-0.00113541039433,0.996867284786,-0.0288980469716,-0.102014903507,0.191409932568,1.49276314789,-0.277901194965,9.50961153243
5710350,-0.01642656256,-0.0774002775139,-0.00127542028023,0.996863951794,-0.0271296995966,-0.100372427759,0.188490340174,1.49660250543,-0.315660060241,9.57431796194
5710430,-0.017017131077,-0.0777440515573,-0.00132719159495,0.996827225882,-0.0247916209872,-0.0998126323713,0.184184444368,1.5190174139,-0.330414513928,9.67347570148
5710510,-0.0162035091938,-0.0778594833194,-0.00126560647975,0.996831854119,-0.0225373936986,-0.0939427843398,0.179046766516,1.528156796,-0.316043430036,9.71764745458
5710590,-0.0151730487417,-0.0780394675954,-0.00118785729124,0.996834093059,-0.020759167264,-0.0853125947833,0.176815539928,1.53531636642,-0.296646872231,9.74103804428
5710670,-0.0139655744732,-0.0795041958417,-0.00111395764134,0.996736075735,-0.0209693015877,-0.0750262003118,0.177605254283,1.55756862112,-0.271840828417,9.69761155826
5710750,-0.0131525292284,-0.0814457549441,-0.00107488258171,0.996590409649,-0.0232238324891,-0.0692800536904,0.178079082895,1.58552460407,-0.254323580302,9.63229075942
5710830,-0.0147538560578,-0.0827993757316,-0.00122595453161,0.996456263037,-0.0292591417061,-0.0649809855947,0.178789070124,1.59846747118,-0.282838718494,9.54784786874
5710910,-0.0167419944121,-0.0849809542345,-0.0014281191231,0.99624088629,-0.036285847728,-0.0624015447372,0.177937992277,1.63304825004,-0.319340834856,9.49718213433
5710990,-0.0167464753705,-0.0856016646341,-0.00143901218237,0.996187652914,-0.0413532514641,-0.0608538802227,0.176575965446,1.63296716292,-0.317060667906,9.42632068563
5711070,-0.0167457659968,-0.0858885815565,-0.00144381004296,0.996162961715,-0.0495019744432,-0.0560940709609,0.175758749347,1.63770691396,-0.316889668566,9.42139278247
5711150,-0.0159363269237,-0.0852759143445,-0.00136412900028,0.996228985258,-0.0577967287224,-0.0528124953423,0.174842729627,1.62522787396,-0.301464178337,9.41891488091
5711230,-0.016624169808,-0.0837721190209,-0.00139775031897,0.996345279181,-0.0666047918431,-0.0512692400327,0.175144497917,1.59619263502,-0.314474959639,9.41982234163
5711309,-0.0174255839779,-0.0833557884012,-0.0014578204027,0.996366416698,-0.0650785887321,-0.0469377663551,0.17489986883,1.59313670162,-0.330661134231,9.44909723799
5711390,-0.0175300548166,-0.0837866861596,-0.00147419784055,0.996328417311,-0.059054586128,-0.0434875020257,0.173476021193,1.60758371287,-0.333908494503,9.48461868825
5711470,-0.0162781358954,-0.0807186444016,-0.00131842759944,0.996603122856,-0.0469263833363,-0.0392888931208,0.171344642427,1.55950934027,-0.312393734397,9.55908283526
5711550,-0.0150684492425,-0.0785985881105,-0.00118817078489,0.996791749582,-0.0375210113539,-0.0350669675319,0.169640125106,1.53186181754,-0.291823433021,9.64877231468
5711630,-0.0149828272612,-0.0782786382185,-0.00117657891718,0.996818230847,-0.0297493378572,-0.0316824320557,0.168191724652,1.54615850532,-0.294085882322,9.77943987563
5711710,-0.0192585573506,-0.0824480849878,-0.0015935552401,0.996407989647,-0.021255123206,-0.023266359848,0.166896994318,1.69192427311,-0.39240851914,10.1461022921
5711790,-0.0227160520561,-0.0847048555927,-0.00193160578758,0.996145239068,-0.00892186337046,-0.00842584510982,0.164843085933,1.76717330532,-0.470316294345,10.3052870198
5711870,-0.0219300346776,-0.0866659853173,-0.0019082320663,0.995994196378,0.0133772446821,0.0255941773594,0.160630910472,1.77640969975,-0.445953170162,10.120436842
5711950,-0.0219267010469,-0.0888821785631,-0.00195711509364,0.995798849073,0.0288851598209,0.0489860212711,0.157677915134,1.80613297317,-0.441869782956,10.0272438276
5712030,-0.0220701823273,-0.092087071116,-0.00204155677978,0.995504249329,0.0411697393344,0.0634468176796,0.150797837193,1.84886663449,-0.439180330467,9.89830486834
5712110,-0.0246066402092,-0.0980992869971,-0.00242634241211,0.994869416562,0.0562029081488,0.0853196874301,0.1381559892,1.92526390647,-0.47802866703,9.65574157823
5712190,-0.0255046227021,-0.100193220637,-0.00256916683237,0.99463773915,0.070331090175,0.106531520448,0.128016740035,1.93447098426,-0.487211879173,9.49200767155
5712270,-0.0235906788303,-0.101252643643,-0.00240164002826,0.994578108623,0.0924300813575,0.132455012164,0.117676289921,1.92682712181,-0.444119512758,9.35474184048
5712350,-0.0206159764461,-0.100694186258,-0.00208696652,0.994701617039,0.113777587235,0.150563247563,0.108066499361,1.90380545155,-0.385702950331,9.29895798026
5712430,-0.0193092999129,-0.101710686757,-0.00197457619927,0.994624646882,0.136376962175,0.163982329171,0.0993207945953,1.92422953314,-0.361426920345,9.3030766302
5712510,-0.0187186000015,-0.102541988799,-0.00192995946293,0.994550667288,0.149510897077,0.173736538381,0.0957761319814,1.93672340226,-0.349734344346,9.28567594638
5712590,-0.0177983584601,-0.102050624006,-0.00182616144845,0.994618295483,0.151431597158,0.185974414829,0.101737445581,1.92650263144,-0.332423731607,9.28337582173
5712670,-0.0181747767443,-0.0986174090378,-0.00180143256188,0.994957807631,0.152584017207,0.204810772358,0.108719754232,1.86075454761,-0.339515036084,9.28822067126
5712750,-0.0181995610797,-0.0961525579335,-0.00175837691932,0.995198658404,0.154126849359,0.222923627858,0.113760519546,1.84764191558,-0.346403440595,9.46614372234
5712830,-0.0127733788866,-0.0921204086228,-0.00118181175029,0.995665242151,0.14611305736,0.25167032374,0.121041879349,1.80793145428,-0.24854349258,9.68350966968
5712910,-0.00707479872614,-0.0902233758877,-0.000640942512555,0.99589621892,0.131513910746,0.27785783256,0.129241905784,1.77261300953,-0.137873347745,9.70188060039
5712990,-0.00513467626461,-0.0886601773791,-0.000457047288365,0.996048592768,0.108280960689,0.300381378835,0.139270202382,1.74376049737,-0.100201680766,9.71697330164
5713070,-0.00383250636777,-0.0878211997204,-0.000337883312823,0.996128824304,0.0883815297936,0.317301027092,0.145287180341,1.72549130941,-0.0747256385867,9.70950893094
5713150,-0.00128160147114,-0.0864694917808,-0.000111236155381,0.996253668558,0.0738877308878,0.332135406722,0.150600127363,1.69681270435,-0.0249635093727,9.70119958586
5713228,0.00302651511481,-0.0856337428541,0.000260128555954,0.996322053667,0.0592317906839,0.34699569536,0.15804479619,1.67481713799,0.0587633055092,9.67083544121
5713310,0.00704959812096,-0.0844142829886,0.00059723344999,0.996405627898,0.0483097762542,0.356763248667,0.163788667671,1.64366328572,0.136293293364,9.63011145882
5713390,0.00959717065581,-0.079085866885,0.000761420875716,0.996821318097,0.0396281172891,0.367732061388,0.168937750805,1.53183652978,0.184726647405,9.59131185942
5713470,0.0112400106347,-0.0720976348042,0.000812544496678,0.997333912483,0.0297365312339,0.376441799328,0.175432721178,1.39243558608,0.215941441324,9.57808774676
5713550,0.0118793288868,-0.066634583824,0.000793393855197,0.997706411882,0.0203960591091,0.380816261969,0.181032463647,1.2831770621,0.227727132861,9.56081589268
5713630,0.0134358131922,-0.0631997013228,0.000850917720144,0.997910092451,0.00925780503523,0.382589559431,0.185669379313,1.2085239814,0.255867522392,9.49945628488
5713710,0.014259649909,-0.0613575391067,0.000876678460847,0.998013600215,0.000446402283596,0.383653537908,0.188025838651,1.16684459514,0.270118134285,9.4499512514
5713790,0.0131588317236,-0.0579203402535,0.00076351222895,0.998234189147,-0.00739457973616,0.383440544871,0.189865404315,1.10185379566,0.249459241167,9.4597525587
5713870,0.0114301079628,-0.0519413634677,0.000594536932321,0.998584545203,-0.0163560695626,0.380332918619,0.193948974144,0.988639064504,0.21695261135,9.47521014972
5713950,0.00956858122401,-0.0468433393262,0.00044873751051,0.998856317219,-0.0230100336429,0.375062822376,0.198101876287,0.891261545392,0.181646902504,9.47969630101
5714030,0.00749390374414,-0.0423629903516,0.000317758374915,0.999074130125,-0.0265767220296,0.362535583278,0.203999138065,0.808414176991,0.14274638491,9.51447029404
5714110,0.00620694705368,-0.0398071552185,0.00024728167974,0.999188071913,-0.0287167350616,0.352890789511,0.209665945439,0.760860537445,0.11844839369,9.53317990836
5714190,0.00462878312885,-0.0385383043667,0.000178519988081,0.999246386831,-0.0325548832496,0.344549772883,0.216471550355,0.738313857867,0.0885467083334,9.55709494575
5714270,0.0037208878225,-0.0351451429108,0.000130852880261,0.999375283265,-0.0403917429614,0.336139642414,0.218852153058,0.674507615257,0.0713239576172,9.57790831266
5714350,0.00320465510705,-0.0326727051343,0.000104761221702,0.999460961494,-0.0484993792802,0.330667874072,0.216449304127,0.627365323549,0.0614691475195,9.58512908916
5714430,0.00305526657147,-0.0290914088412,8.89200594319e-05,0.999572082129,-0.0593236219319,0.323979292574,0.20649379354,0.559096780799,0.0586687236191,9.5968835802
5714509,0.00312159712368,-0.0261676582152,8.1713266371e-05,0.999652690997,-0.0675209277688,0.316986313246,0.196263586572,0.506164646849,0.0603403516031,9.66139711468
5714588,0.00208953081785,-0.0250203853688,5.22973527275e-05,0.999684756032,-0.0720136212095,0.308107934972,0.178206140671,0.485418694115,0.0405137739502,9.69124668922
5714669,0.00153178881828,-0.0233522423371,3.57805030771e-05,0.999726125057,-0.0713037167822,0.291287276349,0.159283561962,0.454775189858,0.0298149281885,9.72926772788
5714748,0.000854742915935,-0.0215028053406,1.83836277739e-05,0.999768422405,-0.0704520840643,0.27395815013,0.146227254491,0.420108516014,0.016691856083,9.76189657789
5714828,-0.000112506873878,-0.0195487100558,-2.19978463695e-06,0.999808899377,-0.0695154143722,0.250364282493,0.137967779947,0.381591419423,-0.002195314817,9.75441940914
5714909,-0.0011289691915,-0.0171610903694,-1.93772082072e-05,0.999852100078,-0.0689534125569,0.230248301051,0.134714855467,0.333102623871,-0.0219073231675,9.70085197385
5714989,-0.00219421673481,-0.0163036555205,-3.57785954014e-05,0.999864678319,-0.0711703518365,0.207110770587,0.137871381516,0.31478325401,-0.0423536541544,9.64979731957
5715069,-0.0037475661873,-0.0166389069615,-6.23644767381e-05,0.999854538737,-0.0759060358959,0.18471445108,0.144873577883,0.321269304213,-0.0723385450317,9.64981030824
5715149,-0.00460577917136,-0.016316170174,-7.51594792999e-05,0.999856271541,-0.0795988264545,0.167445448822,0.152906106256,0.314147606697,-0.088653538396,9.62252420252
5715229,-0.00629434693776,-0.0177003465636,-0.00011143178793,0.999823517683,-0.0796860504824,0.146441795931,0.162833904018,0.339562688774,-0.120708609854,9.58652008548
5715309,-0.0077638967009,-0.0188907499314,-0.000146696432207,0.99979139822,-0.0771842445303,0.129582703582,0.170493342921,0.361036662337,-0.148321358539,9.54935530446
5715389,-0.00858314281505,-0.0222331788164,-0.000190884769995,0.999715949149,-0.0705748802215,0.112656207189,0.179345906877,0.426114642666,-0.164410167419,9.57398278839
5715469,-0.00968047853536,-0.0254979761467,-0.000246924473828,0.999627971085,-0.0619266709602,0.0939865081241,0.184657445251,0.489103447465,-0.185555620715,9.57942189227
5715549,-0.0111248222621,-0.0280586033357,-0.00031228927777,0.999544323972,-0.0550349851575,0.0798048582549,0.186992988152,0.536712957151,-0.212608102653,9.54988479186
5715629,-0.0123189683317,-0.0316837533465,-0.000390536904718,0.999421948065,-0.0517513537988,0.0704444882104,0.186691553647,0.605261830687,-0.235064516133,9.5335990526
5715709,-0.0128264673561,-0.0340088936365,-0.000436502437682,0.999339124799,-0.0493554849222,0.0661053363681,0.18523362276,0.652855499291,-0.245904742395,9.57769714641
5715789,-0.0130491249881,-0.036560625877,-0.000477444111161,0.999246122344,-0.0462152033503,0.0656302955701,0.183507484104,0.701522994399,-0.250014676492,9.57063717945
5715869,-0.0134482954987,-0.0390903982453,-0.000526149064135,0.99914503816,-0.0439053443457,0.0657709611527,0.182897490973,0.753947247567,-0.258944981432,9.61715827446
5715949,-0.0138271923424,-0.0412882746025,-0.000571442967842,0.9990514304,-0.0403909786357,0.0667067406252,0.182531495094,0.797851648101,-0.266697366056,9.63262108284
5716029,-0.0140009391238,-0.0427914490779,-0.00059972875529,0.998985738594,-0.0353025287794,0.0698223486774,0.183588967751,0.826588490081,-0.269912275835,9.62705471758
5716109,-0.013697169651,-0.0432021022255,-0.000592355299203,0.998972279406,-0.0318237688042,0.0725430936317,0.185074831468,0.835690309625,-0.264419196556,9.64023488987
5716189,-0.0133167466133,-0.0435526171034,-0.000580581688263,0.99896220986,-0.0288851326962,0.0758783008502,0.187243419882,0.841630241683,-0.256813786,9.63042590096
5716269,-0.0131769452179,-0.0435787302788,-0.000574830682229,0.998962928217,-0.0232907404782,0.0817106357344,0.189821643115,0.837532755606,-0.252729379998,9.57785357525
5716349,-0.0132756227606,-0.0446189846839,-0.000592987792204,0.99891568834,-0.018657034963,0.0890412472181,0.191368577055,0.858298020063,-0.254827719552,9.58509624671
5716428,-0.0126026645882,-0.0444440014353,-0.0005607115571,0.99893222452,-0.0158768116539,0.100250655092,0.192722427481,0.854237187282,-0.241721513323,9.57794968162
5716509,-0.0125264679376,-0.0425121700949,-0.000533051177542,0.999017276553,-0.012931607484,0.107401989877,0.192683357613,0.816366503043,-0.240082713902,9.57174638124
5716589,-0.0119979914138,-0.0397920007904,-0.000477837013899,0.999135834883,-0.00775896449041,0.112544170872,0.192659915692,0.762519470917,-0.229522627609,9.55509571204
5716669,-0.0106887518562,-0.0384517868821,-0.000411329354285,0.999203203296,-0.0101893494933,0.120312070144,0.194774300847,0.738590957453,-0.204990643216,9.58006065477
5716748,-0.00961424099799,-0.0381627595138,-0.000367190459849,0.99922521752,-0.0129246506793,0.126675569954,0.195191551817,0.733571235849,-0.184525368595,9.58785701542
5716829,-0.00933898082872,-0.0358661433643,-0.000335183526737,0.999312909378,-0.0128630711452,0.131345049962,0.194164832215,0.688182033501,-0.178949968472,9.57314179836
5716909,-0.00900193504993,-0.0330099407861,-0.000297327446361,0.999414438845,-0.0119747433017,0.134572428029,0.193974490515,0.634133453499,-0.172731686405,9.58753642423
5716990,-0.00814323867566,-0.0297265547697,-0.000242185500673,0.9995248676,-0.0097389863498,0.135231784684,0.193860285495,0.572016204912,-0.156550868533,9.60694710722
5717070,-0.00722841952815,-0.0278721276588,-0.00020155500847,0.999585340942,-0.00882322224011,0.133073258309,0.193366072422,0.536182376756,-0.138941512331,9.60614366839
5717150,-0.00633340510536,-0.026149045227,-0.000165672473546,0.999637978453,-0.0082737637743,0.130501072299,0.193495234639,0.502711071561,-0.121672133961,9.60159146226
5717230,-0.00574551353568,-0.0239150707166,-0.000137445943477,0.999697474027,-0.00751839863335,0.127680690509,0.194424112092,0.460601633171,-0.110592246441,9.62088679386
5717310,-0.00573225923576,-0.0217237141682,-0.000124557403063,0.999747571106,-0.00791655967171,0.124711391251,0.194981438565,0.41953423918,-0.110648078577,9.64850514394
5717390,-0.00441206828238,-0.0202502310493,-8.9364597296e-05,0.999785203836,-0.0115609767864,0.117395840897,0.196167214571,0.390584239797,-0.0850636200957,9.6375428349
5717470,-0.00264368423421,-0.0195104197487,-5.15893893287e-05,0.999806157109,-0.0167274574855,0.107046849824,0.199007130482,0.376805542658,-0.0510381720574,9.65083732326
5717550,-0.0025252208962,-0.0191180944693,-4.82863908705e-05,0.999814042406,-0.0211044160893,0.0965805545654,0.200711080028,0.369735425204,-0.0488188358516,9.66432068009
5717630,-0.00302291846392,-0.0187859722087,-5.679874529e-05,0.999818956605,-0.0271361117433,0.0843411165499,0.200882069633,0.360704951411,-0.0580217214329,9.59507798056
5717710,-0.00349973561033,-0.0191063883784,-6.68799261054e-05,0.999811328852,-0.0303294390742,0.0761460736176,0.200133283273,0.365342314109,-0.0668953351058,9.55520830201
5717790,-0.00387058152175,-0.0193873577983,-7.50550181608e-05,0.999804552562,-0.0284142249196,0.0729318081042,0.195852800904,0.371476614051,-0.0741348646377,9.57462154493
5717870,-0.00381774453856,-0.0190942340469,-7.29107318517e-05,0.999810396894,-0.0276907864883,0.0671720382429,0.192007441298,0.366298647874,-0.0732113387045,9.58626949068
5717950,-0.00386537891237,-0.0203251489819,-7.85812227659e-05,0.999785947586,-0.0272567234295,0.0603106558345,0.190125915596,0.389767506595,-0.0740937441407,9.58200551032
5718030,-0.00483195345529,-0.0226528717925,-0.000109486996634,0.999731707829,-0.0274219756557,0.0527883058977,0.190699760421,0.434255182912,-0.0925796998535,9.57705292045
5718110,-0.00467909687397,-0.0250961117587,-0.000117465421751,0.999674085604,-0.0287981971758,0.0478492058742,0.1923211375,0.480580242316,-0.0895454834863,9.56522282039
5718190,-0.00417328007909,-0.0260069259682,-0.000108571855535,0.999653045685,-0.0317523803952,0.0436086756757,0.194145343871,0.499277311649,-0.0800635083535,9.5887705416
5718270,-0.00439661949509,-0.0263408211538,-0.000115851886941,0.999643345127,-0.0322478201425,0.0402129774337,0.19438848757,0.507622511257,-0.0846693904125,9.62516524976
5718350,-0.00540561622287,-0.0269360577958,-0.000145660973328,0.999622532202,-0.0316937038679,0.0381755584884,0.194960063851,0.519572815836,-0.104192331269,9.6333551252
5718430,-0.00671862026152,-0.0279314605157,-0.000187738366688,0.999587244021,-0.0313612341031,0.0369531071213,0.196580079804,0.537038065722,-0.129074204914,9.60115892473
5718510,-0.00753134248913,-0.0284881816002,-0.000214647466649,0.999565733864,-0.0303103721213,0.037071016424,0.196700709253,0.546080694658,-0.144242749267,9.57130671714
5718590,-0.0084613875461,-0.0286695331741,-0.00024269248972,0.999553102085,-0.0254229543177,0.0396959023743,0.193793256492,0.550069751023,-0.162202422021,9.57973161085
5718670,-0.00923410078243,-0.0292470044437,-0.00027019690754,0.99952952488,-0.0237675738198,0.0433992842518,0.191623094774,0.562039991483,-0.177287788662,9.59412393355
5718750,-0.00930242649945,-0.0295325727191,-0.000274856382544,0.999520493269,-0.024477105767,0.0460470034398,0.190320997743,0.567785614763,-0.178677563334,9.59821034402
5718830,-0.00944978947558,-0.0298575358712,-0.000282285902362,0.999509454355,-0.0257542050582,0.0493383951985,0.188688359402,0.575303131553,-0.181905629797,9.61909754308
5718910,-0.00958046679027,-0.0299181263754,-0.000286771167205,0.999506397244,-0.0260947745715,0.0517389203151,0.188134466458,0.577658860133,-0.184800150339,9.6388124675
5718990,-0.00921617489641,-0.028522242101,-0.000262984147152,0.999550636369,-0.0262991162794,0.0527535453236,0.190781961123,0.549623616861,-0.177438896356,9.62119274173
5719070,-0.00820408868156,-0.0263631357153,-0.000216367995164,0.999618742916,-0.0238675809354,0.0533623203287,0.193647528105,0.507902773632,-0.157938673507,9.62115539357
5719150,-0.00797529504583,-0.0248836994941,-0.000198522636792,0.999658520074,-0.0211315895447,0.0537275853318,0.194515488172,0.479757805537,-0.153660564944,9.62951269049
5719230,-0.00799802494949,-0.0235451356234,-0.000188372833904,0.999690763537,-0.0199156847716,0.0530953642107,0.194184884089,0.453533438205,-0.153966741798,9.62159837967
5719310,-0.00801550068883,-0.0225527288042,-0.000180823218087,0.999713505698,-0.0196118319693,0.0518646514151,0.193135141517,0.433968095149,-0.154150447911,9.61230081003
5719390,-0.0069058820012,-0.0211262372514,-0.000145931353303,0.999752954283,-0.0194295202879,0.049423463492,0.19165391585,0.406187738193,-0.132712856637,9.60576458758
5719470,-0.00580718889624,-0.0200842777063,-0.00011665869392,0.99978141848,-0.0197458233405,0.0458303004307,0.19076518045,0.385688801363,-0.111470596062,9.59513908946
5719550,-0.00523242138838,-0.0193642483529,-0.000101342297479,0.99979879845,-0.0199356051721,0.0428230224711,0.190657629272,0.371713498103,-0.10040118088,9.59187625275
5719630,-0.00521352628951,-0.0199729905981,-0.000104151904119,0.99978692127,-0.0191980941481,0.0384645153265,0.192721548872,0.383200189926,-0.0999844560864,9.5865666684
5719710,-0.00515680296111,-0.0209183427745,-0.000107896816711,0.999767882399,-0.0183298974723,0.0341466507939,0.195236970817,0.400866112491,-0.0987767405464,9.57476179181
5719790,-0.00526284540865,-0.0209348411827,-0.000110202511723,0.999766984221,-0.0169575993438,0.0294274817671,0.197171914045,0.401649439223,-0.100925153215,9.58587479847
5719870,-0.00522310119993,-0.0214788076241,-0.000112213404786,0.99975565387,-0.0152828403438,0.025744600228,0.196204429674,0.412653922567,-0.100298839487,9.59876752679
5719950,-0.00568139716009,-0.0220758572713,-0.000125454312425,0.999740147495,-0.0151293650668,0.0226834911817,0.194772558929,0.424763276392,-0.109260437726,9.6127280881
5720030,-0.00587580160734,-0.0226221676061,-0.000132959692028,0.999726810089,-0.0171657302078,0.0212725158153,0.191784986175,0.435141350845,-0.112961455506,9.60937283674
5720110,-0.00641987237633,-0.0235361583377,-0.000151144119062,0.999702361528,-0.0188132393539,0.020851620657,0.189566752461,0.452381523153,-0.123322351819,9.60137418178
5720190,-0.00644181921948,-0.0244000204958,-0.000157230597688,0.999681507903,-0.0185246746572,0.020599083562,0.188235812232,0.469189971021,-0.123792805623,9.60495469462
5720270,-0.00661819488671,-0.0249476302665,-0.000165163305123,0.999666838483,-0.0175001557163,0.020447561305,0.188288628218,0.479753880074,-0.127187540063,9.60518764099
5720350,-0.00655383031586,-0.0257536820911,-0.000168844894911,0.999646820961,-0.0168854443517,0.0207823380122,0.190448768117,0.495908452312,-0.126111918569,9.61729841711
5720430,-0.00664366503218,-0.0267979659909,-0.000178104607188,0.999618776841,-0.0182193777788,0.022260274221,0.192596232179,0.517093363623,-0.128100167499,9.63653589109
5720510,-0.00698019704891,-0.0276225412712,-0.000192889087278,0.999594035025,-0.019871117958,0.0239984160691,0.193884710617,0.532916772569,-0.134560360509,9.63419200584
5720588,-0.00662712341498,-0.0279357377965,-0.0001852099375,0.999587735762,-0.021287852127,0.0258926813009,0.194657797679,0.538580095279,-0.127662568845,9.62727901088
5720670,-0.00585392038013,-0.0272067522108,-0.000159327873004,0.999612674422,-0.0221378926283,0.0274549305015,0.194695959855,0.523303315957,-0.112510566209,9.60565354178
5720750,-0.00584740979247,-0.0270426094856,-0.000158189779829,0.999617166743,-0.0222222268677,0.0292436601448,0.193016096915,0.519643912181,-0.11227791077,9.59650898298
5720830,-0.00572411680541,-0.0267117544147,-0.000152958289901,0.999626776986,-0.0214214472884,0.0303168979307,0.191582489089,0.51361754726,-0.109983536013,9.602993256
5720910,-0.00561618602713,-0.0257829199535,-0.000144852115384,0.999651778626,-0.0209409795408,0.0313865306638,0.191148014455,0.495636518346,-0.107888650661,9.60137715599
5720990,-0.00580944217924,-0.0247025797714,-0.000143554439949,0.999677954306,-0.0215040790152,0.032454000365,0.191738709798,0.474073993527,-0.111420122769,9.58604228603
5721070,-0.00540799896747,-0.0231689661595,-0.000125333223349,0.999716928358,-0.0222676287613,0.0335201722473,0.192093127003,0.444616487181,-0.103722779228,9.58665759085
5721150,-0.00515024792736,-0.0225036300918,-0.000115930170955,0.999733488555,-0.0244285188548,0.0328828051922,0.192731467388,0.432209227025,-0.0988649529372,9.5951670594
5721230,-0.00557756737411,-0.0218261800478,-0.000121767892639,0.999746214686,-0.0257250529109,0.0307976247133,0.19354016168,0.418779366782,-0.106963584799,9.58590753056
5721310,-0.00606599658453,-0.0219222950326,-0.000133014982289,0.999741266015,-0.0260772832831,0.0291208263646,0.194451068317,0.420777097608,-0.116371747071,9.5892103594
5721390,-0.00585070379284,-0.0221548467077,-0.000129655490194,0.999737423138,-0.0254372413835,0.0264119871094,0.196700372545,0.425088198262,-0.112200417627,9.58568539289
5721470,-0.00575754231166,-0.0219627373984,-0.00012648399702,0.999742203208,-0.0246275261822,0.0243609934949,0.199327025266,0.420492253674,-0.110176460293,9.56513506019
5721550,-0.00563442182411,-0.0216944324146,-0.000122266301227,0.999748763412,-0.024567387123,0.0218533271418,0.200477326838,0.416058745759,-0.108004405229,9.5815352805
5721630,-0.00631427021748,-0.0221238863159,-0.000139733185647,0.999735287024,-0.0253826838103,0.0182202770226,0.199890437596,0.424411968647,-0.121066382151,9.58371396737
5721710,-0.00672915086826,-0.0221643588384,-0.000149187344062,0.999731682737,-0.0258718618228,0.0151890668282,0.199538304051,0.425593179723,-0.12914298847,9.59268262481
5721790,-0.00664170249352,-0.0226141579035,-0.00015023824603,0.999722193951,-0.0253139885073,0.013796030773,0.198901333863,0.434442192014,-0.127524607779,9.59710613861
5721870,-0.00732067720727,-0.0226220566384,-0.000165655609988,0.999717271431,-0.024979264518,0.0133858992013,0.197242081565,0.434963196068,-0.14067936916,9.60502749054
5721950,-0.00715733028582,-0.0233442318227,-0.000167132207671,0.999701851319,-0.024352740063,0.0131398202584,0.194969460002,0.448922747963,-0.137558898351,9.6061889992
5722030,-0.00743749026419,-0.0243762918904,-0.000181357343761,0.999675170864,-0.0235511353285,0.0125664828311,0.193605887064,0.468551226903,-0.142869220847,9.60090040026
5722110,-0.00767723062376,-0.0251344683101,-0.000193029785973,0.999654581029,-0.0230701724878,0.0122224803747,0.193213433363,0.483201356259,-0.14749193534,9.60179738371
5722190,-0.00783747579719,-0.0252786550915,-0.000198190273361,0.99964970079,-0.0232072848448,0.0128674590238,0.192977961143,0.485766509556,-0.150504984202,9.59754717046
5722270,-0.00778965204439,-0.0257533656952,-0.000200682413388,0.999637957064,-0.0237152423205,0.0136801362748,0.19283667781,0.495206467013,-0.149679191693,9.60337674832
5722350,-0.00768146912714,-0.0260390337334,-0.000200091788773,0.999631393924,-0.0240200168059,0.0158705028712,0.194028977995,0.500391601155,-0.147507775026,9.5972976884
5722430,-0.00697428251266,-0.0262347342715,-0.000183035903702,0.99963146439,-0.0237771914357,0.018036102952,0.195170048168,0.50350268164,-0.133755076392,9.58503112647
5722508,-0.00662054328158,-0.0264754740133,-0.000175347334262,0.999627524099,-0.0227801160907,0.0193354630004,0.19542900021,0.508002951758,-0.126939978208,9.58269901279
5722590,-0.00654350229703,-0.0263248832551,-0.000172320346386,0.999632008994,-0.0213304907607,0.0201150790295,0.195158681373,0.50519645001,-0.125484541124,9.58441220675
5722670,-0.00640506056142,-0.0256421297397,-0.000164296790387,0.999650653673,-0.0213120956857,0.0205828486469,0.195422180133,0.492499221324,-0.122935337712,9.59286214827
5722750,-0.00649325773072,-0.0251062016646,-0.00016307588238,0.999663688271,-0.0221524387636,0.0221405806018,0.195154589327,0.481768421955,-0.124518277822,9.58452458388
5722830,-0.00648497041762,-0.0245642089706,-0.000159349605348,0.999677207605,-0.0226566446103,0.0235009098362,0.194568344782,0.471020379345,-0.124270941059,9.57784610409
5722910,-0.00604993959165,-0.0241187150862,-0.00014596190299,0.999690784447,-0.0233848581798,0.0238914173153,0.194216598056,0.462656192451,-0.115982253356,9.58197930186
5722990,-0.00530180286797,-0.0237878218247,-0.0001261558149,0.999702963136,-0.024247476383,0.0237000317414,0.194005550019,0.456440579484,-0.10167165426,9.58517748102
5723070,-0.0048767537101,-0.0236824695974,-0.000115527348257,0.99970762954,-0.0243393572434,0.0227338202741,0.193878921198,0.454626573032,-0.0935641351339,9.58973001034
5723150,-0.0053374286749,-0.0230901437038,-0.000123276619629,0.999719131517,-0.0239687956982,0.0208770232093,0.193377253843,0.443003681856,-0.102346573121,9.58456066245
5723230,-0.00531539028083,-0.0228263899345,-0.000121364509285,0.999725306181,-0.024597838894,0.0197629449704,0.192650563369,0.437705888313,-0.101869951929,9.57954369239
5723310,-0.00516375962033,-0.0230132243132,-0.000118867825357,0.999721817789,-0.025400954873,0.0186688079656,0.192214549085,0.441230976836,-0.0989503573881,9.57820945152
5723390,-0.00546343629785,-0.0230367124328,-0.00012589490135,0.999719683159,-0.0258828244603,0.0167352555784,0.191952940514,0.442388349285,-0.104860045976,9.59345005812
5723470,-0.00558340018671,-0.0225519227415,-0.000125950406954,0.99973007385,-0.0257462561513,0.0151494340846,0.19137028531,0.434224226612,-0.107448178464,9.61911441353
5723550,-0.00618269728132,-0.0222958915213,-0.000137885661485,0.999732288397,-0.0248129350429,0.012069490881,0.191020692188,0.429565173174,-0.11905670493,9.62517564031
5723630,-0.00716546216398,-0.0219012364873,-0.000156974166132,0.999734448417,-0.0238272523165,0.00894445477444,0.190810936314,0.421263077293,-0.137753408944,9.60917992276
5723710,-0.0072085756509,-0.0218643670419,-0.000157652730463,0.999734945391,-0.0232358426806,0.00536667286466,0.19068508279,0.420112542421,-0.138436944048,9.5991036519
5723790,-0.00746100153112,-0.0220731645563,-0.000164732638802,0.999728504008,-0.0224553068376,0.0032200037188,0.189758190553,0.425168305482,-0.143635468431,9.6225065698
5723870,-0.0075806149351,-0.0224259959386,-0.000170050496268,0.999719750763,-0.0219869853318,0.00193200223128,0.189202055211,0.431553645643,-0.145796902396,9.61308514427
5723950,-0.0078898380879,-0.0222565368107,-0.000175649452702,0.999721144205,-0.0212803023669,-0.000543558907081,0.188442683944,0.428681085091,-0.151882166096,9.62179749892
5724030,-0.00778282207354,-0.0215693006709,-0.000167914182775,0.999737047805,-0.0217076727108,-0.00373165583594,0.190115511491,0.416662481621,-0.150266080664,9.65048808797
5724110,-0.00776099756104,-0.0216123371945,-0.000167777541197,0.999736288052,-0.0219640949172,-0.00649589411619,0.191544898081,0.416633924519,-0.14953584957,9.63059231567
5724190,-0.00836017230843,-0.0201208260552,-0.00016825351828,0.999762587602,-0.0187124277493,-0.0119856476375,0.191976839973,0.389562311499,-0.161786979713,9.67300322998
5724270,-0.00862883902478,-0.0183296748382,-0.000158196283422,0.999794749502,-0.0142072870798,-0.0182593301805,0.191384624985,0.355362831235,-0.16722229647,9.6869576106
5724350,-0.00922394813241,-0.0158496101496,-0.000146220571927,0.999831829489,-0.0085243722479,-0.0284088906282,0.191029295993,0.308267504649,-0.179342032667,9.7190328354
5724430,-0.00896263101282,-0.0130018047636,-0.000116544912028,0.999875297592,-0.00681738359459,-0.0425867380647,0.191241788659,0.252716409772,-0.174164025753,9.71409653352
5724510,-0.00895228922489,-0.0104396634189,-9.34677259408e-05,0.999905426132,-0.00409043015675,-0.0557760372026,0.190092214074,0.202865761391,-0.173930263596,9.71257127338
5724590,-0.00874191787186,-0.00784945801856,-6.86240539267e-05,0.999930977704,-0.00245425809405,-0.0730547980375,0.184719878647,0.152844078416,-0.170198703812,9.73320393224
5724670,-0.00866209177773,-0.00596280882416,-5.1653253523e-05,0.999944703676,-0.00147255485643,-0.0881046452146,0.180219407207,0.116127303983,-0.16867802844,9.73528846042
5724750,-0.00809291658235,-0.0042268063784,-3.42086173154e-05,0.999958317951,-0.0059918136514,-0.109905255365,0.178796194527,0.0821262310229,-0.157231135911,9.71307600106
5724830,-0.00681627741458,-0.00288688388946,-1.967834061e-05,0.999972601563,-0.00912905898985,-0.139587533852,0.17836795698,0.0559795032622,-0.132167067777,9.69424186162
5724910,-0.00658293287764,-0.00261325885267,-1.72033391222e-05,0.999974917474,-0.0110114061929,-0.164633631989,0.178536704514,0.0505865337444,-0.127423694036,9.67767413431
5724990,-0.00555679472499,-0.00238921560021,-1.32766235189e-05,0.999981706585,-0.0117151244533,-0.192431992715,0.181617783464,0.0461536512037,-0.107339417837,9.65791727111
5725070,-0.00484135681995,-0.00239161467855,-1.15788288476e-05,0.999985420548,-0.0104345951637,-0.215922050134,0.18516919108,0.0461275435054,-0.0933734907903,9.64295069104
5725150,-0.00396371822433,-0.00383477006817,-1.52001791772e-05,0.999984791507,-0.0062607570982,-0.242361096368,0.188577105834,0.0741240383103,-0.0766142287515,9.66413768391
5725230,-0.00416483837483,-0.00588451169472,-2.45086770381e-05,0.999974012684,-0.00673628468916,-0.272272296136,0.190196164625,0.113666850965,-0.0804450411572,9.65721742602
5725310,-0.00388257146995,-0.00735182191147,-2.85449606002e-05,0.999965437172,-0.00744729130519,-0.297881437104,0.1911675999,0.142180941878,-0.075082083288,9.66862758208
5725390,-0.00343537876664,-0.00915463846787,-3.14511541707e-05,0.999952193746,-0.00872527539773,-0.32644331359,0.190899080942,0.177485329043,-0.0665970649142,9.69223308733
5725470,-0.00280988415315,-0.0115117235715,-3.23488808733e-05,0.999929789398,-0.0107691360376,-0.350391480464,0.190312279505,0.223567658607,-0.0545628690755,9.70831175181
5725550,-0.002988487152,-0.0149462621829,-4.46719019786e-05,0.99988383135,-0.013272522606,-0.378808152618,0.188683128459,0.289524282908,-0.0578768388769,9.6820459256
5725630,-0.00366214780168,-0.017851560874,-6.53859124417e-05,0.999833939298,-0.0126461042397,-0.408203167692,0.186002877585,0.345618248944,-0.0708785483945,9.67538439618
5725710,-0.00398725637338,-0.0207676942179,-8.28246428827e-05,0.999776373897,-0.0109931830355,-0.433076907781,0.183969037,0.402498384669,-0.077243053109,9.68383732716
5725790,-0.00403014869678,-0.0241323301371,-9.72860019293e-05,0.999700644733,-0.00915005019007,-0.462474613925,0.181471662464,0.465596306192,-0.0777098736134,9.63791259039
5725870,-0.0050322639629,-0.0268129370605,-0.000134980017418,0.999627792984,-0.00846986054428,-0.483518758102,0.180398927804,0.515426067407,-0.0966647388653,9.60054152152
5725950,-0.00402723302944,-0.0303976617493,-0.000122476060102,0.999529763716,-0.0080617467568,-0.501679215408,0.181032357192,0.58650419269,-0.0776312969325,9.63342493855
5726030,-0.00414415076466,-0.0344925612874,-0.000143028713204,0.999396352191,-0.0107967089145,-0.523217741328,0.181412414825,0.667458294423,-0.0800976014017,9.65770397192
5726110,-0.0038696676788,-0.0371239060281,-0.000143757354062,0.999303167516,-0.0162688967624,-0.53912068731,0.184620279836,0.716988436126,-0.0746341992687,9.63635836704
5726188,-0.00424314792172,-0.0377214339902,-0.000160173065452,0.999279272005,-0.0246604902086,-0.5486624549,0.19761294044,0.733298991852,-0.0823694856257,9.69872893624
5726270,-0.00244449114156,-0.0391384809964,-9.5747318787e-05,0.999230801467,-0.0288440661534,-0.555238895576,0.211368197662,0.75792937558,-0.0472669098813,9.66025508513
5726350,-0.00107006931483,-0.0384676063293,-4.1193518261e-05,0.999259273921,-0.0279486912286,-0.560887520228,0.223026872488,0.736555160748,-0.0204592804503,9.5524160357
5726430,-0.000756516368921,-0.0418860943874,-3.1715358772e-05,0.999122105538,-0.0316683668883,-0.563425314896,0.220656896031,0.800345084974,-0.0144303497643,9.52865345443
5726511,-0.0010578763559,-0.0470611873949,-4.9840167889e-05,0.998891447082,-0.0373056927759,-0.567927822127,0.211998179112,0.887700173543,-0.0199109576613,9.39995306631
5726590,-0.00132676933403,-0.051440402094,-6.8340086174e-05,0.998675182452,-0.0436679187386,-0.577866057511,0.192755176932,0.976265671753,-0.0251146837276,9.45154088275
5726670,0.000490731535037,-0.0559664425976,2.75076156658e-05,0.998432529382,-0.0491880145621,-0.585957449048,0.175249714764,1.06986697874,0.00935204669701,9.51313935387
5726750,0.000860726851196,-0.0667164404044,5.75528823235e-05,0.997771603333,-0.0571826627323,-0.600177465323,0.156232636234,1.25699059374,0.0161457153229,9.3573652029
5726830,-7.07398871207e-05,-0.0757522790609,-5.37414939843e-06,0.997126665567,-0.0577225510198,-0.618500346501,0.144822389116,1.42792270341,-0.00132589844298,9.3436276276
5726910,-0.00159311115634,-0.0823214047558,-0.000131593968938,0.996604550962,-0.055918033685,-0.629494075208,0.140104691152,1.5608883303,-0.0300047993197,9.38374795595
5726990,-0.00171447483319,-0.0882863180152,-0.000151958272246,0.996093651991,-0.0539839431612,-0.630982031695,0.146213563665,1.69214304212,-0.0326075097188,9.47078765663
5727070,-0.00175090812837,-0.0926766722733,-0.00016296997288,0.995694703299,-0.0528234888469,-0.629320665218,0.157115618217,1.78573991951,-0.0334508754602,9.50960394774
5727150,0.00022398306867,-0.0972548347038,2.1887192842e-05,0.995259487008,-0.0585125671802,-0.623641254656,0.178130313038,1.90678091094,0.00435033165749,9.66337771288
5727229,0.00166708695595,-0.101896521547,0.000170759405071,0.994793591937,-0.0666086048563,-0.618530848073,0.19627310073,2.03902112713,0.0330165600785,9.84877641655
5727310,-0.000310429067831,-0.106120841706,-3.31300731461e-05,0.994353191523,-0.0735946777693,-0.602693902279,0.21439550439,2.17343189503,-0.00628686204862,10.0665576126
5727394,-0.00246248441455,-0.111630819263,-0.000276618945552,0.993746657777,-0.07863770164,-0.568076021176,0.226971706832,2.31608817876,-0.0504590496022,10.1787909775
5727470,-0.00490245929869,-0.117809982745,-0.000581616066125,0.993023884698,-0.0816635159624,-0.534534590671,0.233666048174,2.43544019241,-0.0999466980719,10.1192383084
5727550,-0.00567345220564,-0.122743276319,-0.000701695567276,0.992421990729,-0.0792221039413,-0.491422469049,0.231722992119,2.52668385422,-0.115034657027,10.057649329
5727630,-0.00672287561231,-0.12553418344,-0.000850700025878,0.992066151041,-0.0756288064213,-0.455764324662,0.226725947932,2.57664164798,-0.135819020534,10.0173440591
5727710,-0.00769413357939,-0.129098045992,-0.00100171049824,0.991601478118,-0.0730471378478,-0.418193215694,0.216065300314,2.64875427346,-0.155232823453,9.99890698111
5727790,-0.00857976323594,-0.131910336777,-0.00114177987425,0.991223863238,-0.0740522770725,-0.380751398162,0.206263391252,2.71237256285,-0.173345449687,10.0089137089
5727870,-0.00957142684015,-0.136123122455,-0.00131519641085,0.990644817066,-0.0750810506688,-0.34849543623,0.199530865691,2.8082437965,-0.193789832068,10.0237762918
5727950,-0.0105779784804,-0.13884265458,-0.00148312492465,0.99025684748,-0.076124004888,-0.307431665936,0.196342730478,2.89904593977,-0.216590948801,10.1327714709
5728029,-0.0120401767087,-0.14129929435,-0.00171864012415,0.989892211222,-0.0776011575424,-0.270448391977,0.194855539411,2.95568200722,-0.246791610297,10.1392712175
5728110,-0.0147501953152,-0.143214799878,-0.00213469102393,0.989579403549,-0.073804858459,-0.217183053115,0.192260464526,2.9755378579,-0.300106771598,10.060331688
5728190,-0.0175684949207,-0.145522662318,-0.00258453869013,0.989195543307,-0.0596077572881,-0.153722785249,0.187297899102,2.99367629262,-0.35364368332,9.9483245255
5728270,-0.0169317497529,-0.148493554,-0.00254282395161,0.988765146188,-0.0472582860323,-0.103727302809,0.183894669787,3.02036108441,-0.33668469632,9.82318054782
5728349,-0.016353877116,-0.148120053142,-0.00244969750557,0.98883112792,-0.0364430827872,-0.0545739605791,0.183555492444,3.01123284205,-0.325072783124,9.82039905135
5728428,-0.0177249955409,-0.149949185437,-0.00268868476169,0.988531151403,-0.030805340963,-0.0152910838275,0.184203366161,3.04837268619,-0.352103298781,9.81058986782
5728509,-0.0194956996312,-0.150543620169,-0.00296937822146,0.988406656653,-0.0295511461758,0.0257319347434,0.187997610882,3.06658644985,-0.387954061788,9.82577333231
5728588,-0.0201218095121,-0.150668337364,-0.00306737845517,0.98837480547,-0.023690348566,0.0758871495736,0.190274157716,3.03226429667,-0.395578149963,9.70655420202
5728669,-0.0207510891499,-0.152295059317,-0.003198309773,0.98811202706,-0.0142142091396,0.120879430623,0.18993732557,3.01526230725,-0.401110283533,9.54093059861
5728749,-0.0213905155311,-0.153718584435,-0.00332846911964,0.987877504521,-0.00469731493059,0.170862062572,0.186755395852,3.02948197053,-0.411372748489,9.48991931009
5728830,-0.0216841106831,-0.153783499725,-0.00337563581177,0.987860840219,0.00186420171773,0.206811302601,0.18442054796,3.04328101215,-0.418727328292,9.52850496496
5728909,-0.020974286799,-0.152100372334,-0.00322849582064,0.988137203451,0.0049497315838,0.239874478278,0.183871019347,3.02546363903,-0.407338345218,9.58613286179
5728989,-0.0188839693796,-0.148492889415,-0.00283610061065,0.988729090311,0.0072267395649,0.280571196696,0.185244062426,2.90775240095,-0.361479468312,9.45527026517
5729069,-0.0170350396279,-0.146891009857,-0.00253011852285,0.989002748807,0.00944432447648,0.316908549468,0.186919268396,2.83233725478,-0.32127487337,9.31905244719
5729149,-0.0153858304279,-0.146443325285,-0.00227798959267,0.989096779625,0.0116262555464,0.354461493405,0.190052842285,2.8165368475,-0.289490671092,9.2986133189
5729229,-0.0128560133208,-0.147273608731,-0.00191438988286,0.989010385286,0.0112326539424,0.381250160382,0.193635746864,2.83626586338,-0.242168570136,9.3090947577
5729309,-0.0121829318694,-0.143272644315,-0.00176381270451,0.989606696889,0.00418545199669,0.408816992228,0.203022220657,2.78274156759,-0.231731822013,9.4061238639
5729389,-0.0106342901406,-0.13828123768,-0.00148487441803,0.99033479507,0.00251127119801,0.441107623609,0.212911005547,2.6591684867,-0.200570075874,9.33433617747
5729469,-0.00946306444092,-0.136022032246,-0.00129932122279,0.99065976446,0.00661504345635,0.466441663298,0.217567206297,2.57951797434,-0.176126944206,9.21464911249
5729549,-0.00728491580225,-0.132344769442,-0.000972703152591,0.991176495813,0.0184424881635,0.492284338649,0.21567833607,2.52071433929,-0.136321947774,9.26996898165
5729630,-0.00610739895994,-0.128457833811,-0.000791112759698,0.991695849921,0.0263903351107,0.512472534535,0.211565183504,2.48136201544,-0.116030252404,9.41664606184
5729709,-0.00723092816028,-0.121746554068,-0.000886962216119,0.992534484816,0.0324361134635,0.535227703603,0.201009180797,2.38041790751,-0.139289419753,9.55612764565
5729789,-0.00669806096635,-0.111575909681,-0.000752055334015,0.993733056092,0.04330031152,0.571442378302,0.183181947513,2.17691760363,-0.129063483395,9.57110300829
5729870,-0.00522867303403,-0.10422674387,-0.000547959607756,0.994539665665,0.0519472806612,0.602536364473,0.167377326805,2.03326960637,-0.100901266306,9.59373517533
5729949,-0.00338457065509,-0.0960507121894,-0.000326602383902,0.995370633835,0.0503244211625,0.624598276667,0.153211963704,1.91906864859,-0.0670051042663,9.8508047844
5730028,-0.00131229660117,-0.0923879083212,-0.00012176120585,0.995722219019,0.0433910446028,0.636558353799,0.144712745844,1.86850458637,-0.0263166929309,9.98230163407
5730109,-0.00116642262869,-0.0867038582099,-0.000101515707051,0.996233441581,0.0345484279909,0.655228031738,0.143018735619,1.73832793981,-0.023212040905,9.91108329978
5730189,-0.000548141483683,-0.0809512806746,-4.45188701317e-05,0.996717907793,0.0288171679623,0.680903300591,0.150516130714,1.60754951535,-0.0108147623848,9.83124217347
5730269,0.00109965764877,-0.0750422280827,8.27541477216e-05,0.997179747041,0.0202701312076,0.693328631473,0.161825608754,1.49340885594,0.021762722159,9.86617687513
5730349,0.00258777600415,-0.0716050876707,0.000185775428666,0.997429686907,-0.0014600032422,0.687587438097,0.179679237176,1.42851576278,0.0513648598579,9.89791160359
5730431,0.00293190370473,-0.0687716016969,0.000202111100711,0.997628101996,-0.0179036044038,0.686271172378,0.193371244659,1.35821586514,0.0576339745085,9.80442496264
5730509,0.00223422370963,-0.0636506729216,0.000142499154492,0.997969728887,-0.0230871744247,0.70378608559,0.205417659703,1.22194380131,0.0427206703496,9.54027685381
5730589,0.00353133501319,-0.0555811805017,0.000196580880549,0.998447907205,-0.0308799071133,0.70663261241,0.212219818667,1.06236900906,0.0672915110965,9.51227197898
5730669,0.003713468012,-0.0511977673177,0.00019037225568,0.998681612195,-0.0415152075869,0.697272586905,0.213321283616,0.981707604165,0.0710206879079,9.54933859144
5730750,0.00371891847582,-0.0487572834438,0.000181541537384,0.998803716452,-0.0474706978096,0.683994150495,0.204616981233,0.921818593261,0.0701457318365,9.41906791317
5730829,0.00371550976319,-0.0448666396444,0.000166871635156,0.998986061859,-0.0455100211443,0.680709679326,0.196414569372,0.833691590527,0.0689024976957,9.26237569175
5730909,0.0038952317846,-0.0398712127112,0.000155432392674,0.999197222478,-0.0400767145304,0.677887616501,0.187661911703,0.745381204316,0.0727055403654,9.3247017273
5730989,0.00364275745492,-0.0363408023431,0.000132469111136,0.999332806854,-0.0402222510538,0.655761255856,0.175173586057,0.684494107111,0.0685230214849,9.39872863404
5731068,0.00333996913037,-0.0334161055786,0.000111671750777,0.999435938929,-0.038606812722,0.640782679223,0.165552140362,0.622822731357,0.0621827875003,9.30332340113
5731149,0.00161266047941,-0.0285505689224,4.60612110138e-05,0.999591047488,-0.0304008186781,0.641160714595,0.161907723252,0.52955616689,0.0298876473537,9.26260025283
5731229,0.00195102364314,-0.0250338639613,4.88570651647e-05,0.99968469868,-0.0267542924361,0.63585356502,0.162275213355,0.47000492572,0.0366073613614,9.37846658114
5731309,0.00145022500107,-0.0234565310248,3.40266457105e-05,0.999723805279,-0.0369113884733,0.605850801402,0.165475537847,0.444569248157,0.0274710806352,9.46857651241
5731389,0.00098330954248,-0.0190226106467,1.87085088554e-05,0.99981857006,-0.0468368566488,0.585295002863,0.174206773525,0.356045270818,0.0183980097093,9.35337241379
5731469,0.000271320051762,-0.0152843844431,4.14744460654e-06,0.999883150153,-0.0523664474926,0.573812903863,0.18455379567,0.284734951797,0.00505330167516,9.31130443338
5731549,-0.00241038223566,-0.013213131704,-3.18515710432e-05,0.999909797028,-0.0641980032281,0.549470351942,0.194167529449,0.249849625864,-0.0455703126961,9.45198182019
5731630,-0.00410258390768,-0.0131824618683,-5.40873109998e-05,0.999904689747,-0.076405217407,0.526776709622,0.198658699531,0.250226825079,-0.0778598426469,9.48802537873
5731709,-0.00648047442774,-0.00958399638241,-6.21130006289e-05,0.999933071064,-0.0798983353612,0.514437594415,0.203056161827,0.179584775467,-0.121414997385,9.36671767475
5731789,-0.00865215017379,-0.00455347010831,-3.93991904236e-05,0.999952201185,-0.07220333472,0.50405429486,0.205268949143,0.0857242100068,-0.162870980853,9.41100951354
5731868,-0.00920327293464,-0.00231992396377,-2.13518551646e-05,0.999954957618,-0.066309264151,0.488033443713,0.202339720918,0.0442519210236,-0.175534142467,9.53526804455
5731949,-0.0107445764109,-0.0013527622714,-1.45357099614e-05,0.999941360231,-0.0610700615637,0.463947470936,0.193345452938,0.0258328921161,-0.205158694709,9.5454191385
5732028,-0.0114027534456,7.9750185963e-05,9.09430835956e-07,0.999934983313,-0.0536696393967,0.450772957454,0.187097512027,-0.00149909651743,-0.214314300077,9.39564726679
5732109,-0.0137083054576,0.00269917815149,3.70047705114e-05,0.999902392951,-0.0394385146829,0.440314108995,0.181220297173,-0.0502200121097,-0.255002427703,9.29836211862
5732189,-0.0133489609789,0.00383633089603,5.12159718313e-05,0.999903537939,-0.0334539802233,0.416585507401,0.171308617339,-0.0732276371486,-0.254755027178,9.5395056574
5732269,-0.0138305433292,0.00409498134699,5.66417095824e-05,0.999895966584,-0.0332687800393,0.39553730546,0.163233159131,-0.0793707668595,-0.26801411616,9.68634656217
5732349,-0.0137163434672,0.00649924445669,8.91561400096e-05,0.999884800262,-0.0344347301133,0.381631314112,0.163496164944,-0.123758072909,-0.261125519257,9.51587732573
5732429,-0.0142516754749,0.00828551170851,0.000118098473145,0.999864103813,-0.0342829200348,0.374139099426,0.16918793923,-0.15446059936,-0.265611487091,9.3154335158
5732509,-0.0138757596138,0.00929024285772,0.000128927154339,0.999860559308,-0.0393001147252,0.361129969385,0.176434214356,-0.175036896726,-0.261359882977,9.41471552208
5732589,-0.0158074007485,0.00854059478842,0.000135026401761,0.999838570015,-0.0508242327687,0.342682239824,0.180356289369,-0.162004137547,-0.299749768898,9.477397188
5732669,-0.0166984469407,0.0086186842436,0.000143944060028,0.999823414125,-0.0564616334104,0.33246498221,0.186115054869,-0.162085347518,-0.313925154307,9.39553552472
5732749,-0.0169683556064,0.0111539285429,0.000189302861458,0.999793793215,-0.0500532023818,0.327186007765,0.200212565706,-0.207623905044,-0.315726620905,9.29877391371
5732829,-0.0164158863084,0.0121966038582,0.000200259948889,0.999790838839,-0.0440796934573,0.317633272175,0.20952245233,-0.228003854745,-0.306751853891,9.338639795
5732909,-0.0157053005037,0.0104066106492,0.000163467964035,0.99982249388,-0.0409212781641,0.294448338302,0.209574413506,-0.198333295513,-0.299212212188,9.52177373418
5732989,-0.0152912633572,0.0101033656134,0.000154519179966,0.999832023588,-0.0305124277589,0.280537377978,0.209605590212,-0.189868346449,-0.28726640202,9.38936088968
5733069,-0.0165627698944,0.0100797123484,0.00016697934744,0.999812005414,-0.0183074566554,0.273467871968,0.211752746542,-0.186704738338,-0.306674554347,9.25364944396
5733149,-0.014817281516,0.00980121050044,0.000145250220139,0.999842169217,-0.00672757337859,0.261138057194,0.209209829788,-0.184327733139,-0.278575698184,9.39679869226
5733229,-0.0131444657246,0.00818502701462,0.000107600708244,0.9998801012,-0.00190809371985,0.246929127346,0.202575798997,-0.157044152091,-0.252139577846,9.58827253445
5733309,-0.0125659434317,0.00797430013517,0.000100215704032,0.999889242646,0.00055790401394,0.237126699253,0.195189860031,-0.152405591596,-0.240108628299,9.55136445451
5733389,-0.0119474852452,0.00985832060079,0.00011779627295,0.99988002142,0.00544302314591,0.23763059332,0.19331243702,-0.185296060036,-0.224510352761,9.39322895224
5733469,-0.0102565690273,0.0099184153614,0.000101739268491,0.999898203558,0.00667133437924,0.235804479452,0.191334603091,-0.185637307652,-0.191927631334,9.35437196974
5733549,-0.00978138405456,0.0082279846266,8.04876530006e-05,0.999918305821,0.000597280135849,0.224492249656,0.18631669218,-0.1571116363,-0.186743208439,9.54414172798
5733629,-0.00994459270667,0.00727917617676,7.23939403604e-05,0.999924053831,-0.00432422259457,0.216427841594,0.183305945634,-0.139517393157,-0.190575739517,9.58019202898
5733709,-0.0106422509288,0.00781324339136,8.31577447173e-05,0.999912840605,-0.00259453355674,0.219677307925,0.187884848628,-0.146199099224,-0.19910018248,9.35234639659
5733789,-0.0113654320024,0.00734202806148,8.34529605508e-05,0.999908453117,0.000997420234726,0.223329747969,0.193612020854,-0.13488523224,-0.208763831412,9.18212019391
5733869,-0.00889391892116,0.00779880200698,6.93667660756e-05,0.999930033593,0.00613242293984,0.217007410767,0.194494183822,-0.145335164002,-0.165720306904,9.31509507533
5733950,-0.00859822829868,0.00610861446872,5.25261835742e-05,0.999944374723,0.00921342456291,0.207680037646,0.192043651172,-0.116410358655,-0.1638362088,9.52608225516
5734029,-0.00843285686381,0.00578933940804,4.88232248645e-05,0.999947682677,0.0136161659055,0.204212064081,0.192276091828,-0.110068803084,-0.160311548278,9.50399463996
5734110,-0.00787484651999,0.00638697289299,5.02990169259e-05,0.999948594098,0.0213660914486,0.207665250741,0.198375217082,-0.119192558706,-0.146944004162,9.32889403861
5734189,-0.00679839415421,0.00715303823062,4.8631541377e-05,0.999951305572,0.025590356713,0.210162852799,0.201609002173,-0.132328257391,-0.125755368562,9.24801511458
5734268,-0.0060936010733,0.00601066179652,3.66279169048e-05,0.999963368644,0.0238680152571,0.208255893541,0.198015302428,-0.113873458341,-0.115436388862,9.47122964858
5734350,-0.00649729047631,0.00756521310377,4.91558313762e-05,0.999950273939,0.0207061600762,0.208388788171,0.196710462704,-0.144220267632,-0.123849631169,9.52998043685
5734429,-0.00676843937402,0.0096628649616,6.54070677374e-05,0.999930404074,0.0175319767832,0.213151115625,0.198481699239,-0.183018487483,-0.128179316055,9.46778690225
5734512,-0.00514119412682,0.00977508259099,5.02586627422e-05,0.999939004818,0.0134990165002,0.219839722651,0.202098581529,-0.184031343955,-0.0967794634121,9.4113171682
5734589,-0.00411121083648,0.0087822924828,3.61075536974e-05,0.999952982885,0.00980217014596,0.221298746498,0.203417330779,-0.165485444556,-0.0774607114945,9.42005211733
5734669,-0.00318202409606,0.00958709980893,3.05079391382e-05,0.999948979353,0.00588130208757,0.22047140056,0.202080130022,-0.183327745005,-0.0608416368577,9.55960779994
5734749,-0.00380588939766,0.00989924628105,3.76775555355e-05,0.999943757773,0.00140033094523,0.225508963796,0.201277809568,-0.189005301788,-0.072657427183,9.54470010111
5734829,-0.00462787914347,0.0101734157455,4.70842794724e-05,0.999937539114,-0.00171394180163,0.229808571922,0.201222107357,-0.192172415692,-0.0874083466906,9.44286045739
5734909,-0.00247864313223,0.00922902719761,2.28765094359e-05,0.999954339388,-0.00102836508098,0.234942477167,0.199060235723,-0.173003709425,-0.046459503864,9.37146160402
5734989,-0.00060417050474,0.00936881313365,5.66061002755e-06,0.999955929172,0.00193712132018,0.240151270621,0.195208972374,-0.176107115792,-0.0113557108633,9.39733587965
5735069,0.000195532601098,0.0108099926001,-2.11382952175e-06,0.999941551203,0.00456779328381,0.245830687062,0.18864131375,-0.20574189887,0.0037210607867,9.51461401558
5735149,-0.000487643853604,0.0112784473563,5.50021601973e-06,0.999936277369,0.00444343621613,0.250515407111,0.185552098699,-0.214185382242,-0.00925953149673,9.49352239373
5735229,-0.000817293391897,0.0113883566106,9.30823534563e-06,0.999934816515,0.00436882197553,0.255454689448,0.184549949791,-0.214223648779,-0.0153719457047,9.40353470699
5735310,-0.000109779422764,0.0115246691195,1.26525555825e-06,0.999933582769,0.00602681367701,0.26437791971,0.185651420692,-0.214246608701,-0.00204056244234,9.29327835593
5735390,-0.000387498738674,0.0124273293492,4.81594670772e-06,0.999922702666,0.00744729875937,0.271860308175,0.187163683355,-0.231259216441,-0.00720984161579,9.30230247743
5735469,-0.00165190791738,0.0137334269024,2.26885273066e-05,0.999904327259,0.00617113950147,0.276775431315,0.191050871384,-0.258944453205,-0.0311409635632,9.4247934115
5735550,-0.00292710728609,0.0159075491072,4.65691950162e-05,0.999869181321,0.00370268370088,0.279298815138,0.198491464938,-0.300694712694,-0.0553158635383,9.44753089676
5735630,-0.00339494628087,0.0162781247372,5.52710009477e-05,0.999861737412,0.00051884997468,0.281238535493,0.204232891255,-0.307309515605,-0.064074719539,9.43531600998
5735710,-0.00300933081674,0.0182374756829,5.48919757157e-05,0.999829153103,-0.00309421050689,0.284530818014,0.208103437107,-0.341924178601,-0.0564013441746,9.36932913724
5735790,-0.00244848081537,0.019376349248,4.74516702565e-05,0.999809261699,-0.00568773685729,0.288634637833,0.210425764618,-0.360777615071,-0.0455723946395,9.30435847599
5735870,-0.00239835662431,0.0222148795102,5.329250839e-05,0.999750340922,-0.0102236830978,0.294928140278,0.211393471063,-0.417579508496,-0.0450605290689,9.39155050674
5735950,-0.00243912898762,0.0237395207482,5.79202488572e-05,0.99971520067,-0.019330601764,0.297427171561,0.207291504254,-0.452139484883,-0.0464293508886,9.51473409433
5736030,-0.00149504367111,0.0241875260285,3.6172030695e-05,0.999706320436,-0.026923203271,0.298075210207,0.202701873862,-0.462580403576,-0.0285758710312,9.55392832281
5736110,0.000726037522906,0.0253408795862,-1.8404344516e-05,0.999678604529,-0.0327558343596,0.300592483702,0.199522405565,-0.479858282429,0.0137396787973,9.45893187772
5736190,0.00266594562529,0.0272532984045,-7.26830676411e-05,0.999625002277,-0.0358297229513,0.305508368291,0.197614724586,-0.512969925512,0.0501423363311,9.40049748967
5736270,0.00217063121322,0.0291144771408,-6.32237435436e-05,0.999573724937,-0.0376740561064,0.314417559905,0.194341665692,-0.545286759995,0.0406198891034,9.35250816787
5736349,0.000841327099385,0.0308582881687,-2.597429303e-05,0.999523415206,-0.0409091063067,0.322317215242,0.191100760171,-0.578323810147,0.0157528074855,9.35723339804
5736429,-5.74596212087e-05,0.0319503677967,1.83679379693e-06,0.999489455018,-0.0437015165498,0.32577993826,0.189156216858,-0.602695023393,-0.00108280281342,9.41728995582
5736509,0.000383318348265,0.0344156656067,-1.31999766596e-05,0.999407531918,-0.0462283428186,0.322323601272,0.188840870994,-0.651794255247,0.00725118379047,9.45260562998
5736589,0.000103551192129,0.0364901751268,-3.7811193366e-06,0.999334006417,-0.0481701286413,0.319398418956,0.188651663475,-0.690351760668,0.00195650861412,9.44051563141
5736669,-0.000676427149978,0.0393187455402,2.66168553947e-05,0.999226489835,-0.049335200135,0.320197449935,0.188538138964,-0.740061902348,-0.0127124644604,9.38920832172
5736749,-0.00273368860362,0.0414687474252,0.00011346066598,0.99913605533,-0.0457773424165,0.324508079076,0.188895714319,-0.778028273,-0.0512019488911,9.35650857457
5736829,-0.00485533188123,0.0435253325627,0.000211532900037,0.999040502898,-0.0423655576011,0.328371526744,0.189535949593,-0.813497364191,-0.0905762108386,9.31797453317
5736909,-0.00583319216687,0.0457641616498,0.000267235700473,0.998935205087,-0.0394671065889,0.330689595346,0.190345780819,-0.862072717831,-0.109651784853,9.38822797308
5736989,-0.00567356542342,0.0472433734946,0.000268342332545,0.998867259604,-0.0377280359816,0.329526296138,0.190405989493,-0.896724593833,-0.107450179798,9.45791335611
5737069,-0.00453882705544,0.0486623890384,0.000221134435333,0.998804946945,-0.038387353863,0.322442965691,0.188739354452,-0.921825282423,-0.0857785026544,9.43747534277
5737149,-0.00457675447558,0.0510579087661,0.000233987163488,0.998685179884,-0.0409113948992,0.318618657484,0.186887993304,-0.963940174337,-0.0861830256649,9.40222819883
5737229,-0.00523018800914,0.0528568979835,0.000276842315151,0.998588362053,-0.0432771996439,0.317175452683,0.185351486554,-0.992321571643,-0.09791790744,9.34684282872
5737309,-0.00700428588978,0.0535136518606,0.000375372028167,0.99854248189,-0.0446966824907,0.316735219864,0.184003892442,-0.994985200066,-0.129858533771,9.25543250631
5737389,-0.00705430084809,0.0547413505205,0.000386751529503,0.998475573966,-0.0451226821373,0.316471080173,0.18447240616,-1.01453988957,-0.13034813662,9.22381006897
5737468,-0.00754076786104,0.0562678137939,0.000424987966253,0.998387144016,-0.0453782819252,0.313332765928,0.186456274636,-1.04782051822,-0.139979284804,9.26540990857
5737548,-0.00739003904274,0.0584400950765,0.000432625852068,0.998263469954,-0.0451059517365,0.303787356274,0.18722090566,-1.09580105483,-0.138096528402,9.32604341707
5737629,-0.00690967947398,0.0591936868045,0.000409737704005,0.998222518223,-0.0445168635619,0.294228899929,0.188105374337,-1.11573083065,-0.12978426958,9.37367626997
5737709,-0.0064766513573,0.0603703769271,0.000391720625269,0.998154956473,-0.0445891007185,0.285513995692,0.187784675419,-1.14061738511,-0.121923872295,9.39411569606
5737789,-0.00585691992364,0.0613969851329,0.000360283141103,0.998096176178,-0.0454838231354,0.281562123334,0.186315185884,-1.15770409928,-0.110025028943,9.37381820914
5737869,-0.00598910664887,0.0626800659301,0.000376144008362,0.998015630365,-0.04729772677,0.283022210472,0.184582112041,-1.17657525376,-0.111983689241,9.32931799458
5737949,-0.0067136530752,0.0647736166533,0.000435792645572,0.997877304849,-0.0479603788892,0.285601023001,0.184819337919,-1.21231880338,-0.12512989372,9.29806888268
5738028,-0.00664417999084,0.0662954804624,0.000441460110552,0.997777815576,-0.0492093502837,0.286296930395,0.184961673446,-1.24669362211,-0.124398490431,9.33941387722
5738108,-0.00686891932004,0.0697550160192,0.000480322985555,0.997540387642,-0.0495330430589,0.281606194094,0.187175525069,-1.3113718239,-0.128508631612,9.3299837902
5738189,-0.00692945111061,0.0720567697761,0.000500627341688,0.997376335196,-0.0475988084168,0.276237611945,0.191057976412,-1.35400946763,-0.129538195325,9.32097385566
5738269,-0.00662566733048,0.0731067168369,0.000485691181804,0.997301996684,-0.0430327471398,0.268333871979,0.196792967709,-1.38270451603,-0.124649269734,9.37973249943
5738349,-0.00665200802787,0.0749375012379,0.000499901621063,0.997165919893,-0.0419958706194,0.258057657201,0.201085342611,-1.41955399868,-0.12530721687,9.39056682876
5738429,-0.00733437243727,0.0757440151124,0.000557150460661,0.99710016585,-0.0426508148916,0.251466238272,0.203660767552,-1.44238194877,-0.138870094282,9.43800827475
5738509,-0.00876844445946,0.0777143040819,0.0006835272881,0.996936875691,-0.0438951615778,0.247937076977,0.204780332455,-1.47307755061,-0.165203753347,9.38961926905
5738589,-0.00937897269903,0.0790770268643,0.000744024215579,0.99682410942,-0.0437903894666,0.245393890138,0.205026381335,-1.49101607138,-0.175736705133,9.33688326919
5738669,-0.00974089688876,0.0809909514508,0.000791562847427,0.996666922366,-0.0433018361385,0.243442287973,0.203471250417,-1.52572120045,-0.182295896371,9.32391644223
5738749,-0.00997740275756,0.0821240433835,0.000822203307747,0.99657183229,-0.0417316339572,0.239717186306,0.198281271252,-1.54726253838,-0.186710251446,9.32236127037
5738828,-0.0106044526796,0.0826133011525,0.000879123913249,0.996524869332,-0.0390867524026,0.234502294875,0.19431590363,-1.55108937484,-0.197738570301,9.2886276045
5738909,-0.010922005318,0.0840313656681,0.000921104395815,0.996402825644,-0.034945683101,0.22371093891,0.190659612872,-1.55937098086,-0.201243099456,9.17716832174
5738989,-0.0112913781004,0.0849511413517,0.000962757758637,0.996320672003,-0.0316096613972,0.212979224716,0.187188768233,-1.57008602846,-0.207176539605,9.13782607117
5739068,-0.0110747120433,0.0858134182458,0.000953936908955,0.996249214808,-0.0274795980675,0.200154845278,0.183829191266,-1.60021765345,-0.20499051971,9.21765023254
5739149,-0.0114013244244,0.0865855623662,0.000990976924128,0.996178682846,-0.0211703495166,0.188629007062,0.183941895392,-1.61350822513,-0.210861512754,9.20928099036
5739229,-0.0113997809587,0.0873398443527,0.000999540464545,0.996112843759,-0.0169591103246,0.180436433948,0.185286588053,-1.62746807228,-0.21079280609,9.20689306687
5739309,-0.0110082184643,0.0885871757127,0.000979096402885,0.996007114832,-0.0152837469323,0.170838299404,0.186944783772,-1.66672918199,-0.205484338439,9.29332751371
5739388,-0.0115630783194,0.0888060321772,0.00103101445815,0.995981285405,-0.0142785288969,0.161248208124,0.187939701203,-1.68286382267,-0.217382728308,9.3593139716
5739469,-0.0108592629836,0.0893948891557,0.000974723316679,0.995936584384,-0.0136753980757,0.146554662066,0.189388031785,-1.68440432144,-0.202973947287,9.30505314126
5739548,-0.0104139074782,0.0892968479456,0.000933710476355,0.995950175291,-0.0162933500132,0.129650423263,0.191108410257,-1.67766717538,-0.194089258509,9.27848214721
5739629,-0.0103750672849,0.0898366938787,0.000935897022904,0.995902028569,-0.0187155012986,0.115676669428,0.19214063734,-1.69373618169,-0.194025688895,9.30970532348
5739708,-0.0106244567617,0.0901246068634,0.000961492721893,0.99587336127,-0.018466031824,0.101758446328,0.194462733836,-1.70409584598,-0.199254790778,9.33586125439
5739789,-0.0102961741681,0.0910705595635,0.000941641931421,0.995790768831,-0.0174649700163,0.0917047522219,0.197558751979,-1.7304229385,-0.194012546098,9.3793275522
5739869,-0.00926755552393,0.0906728690819,0.000843828494656,0.995837251352,-0.0177157130547,0.0835440854511,0.200267742988,-1.7222771774,-0.174586628,9.37763459162
5739949,-0.00882985779601,0.0905798360592,0.000803140321928,0.995849728562,-0.0161633986318,0.0786476853886,0.201041757471,-1.71738972075,-0.1660435393,9.36105650448
5740029,-0.0089572881945,0.0903560678958,0.00081270268756,0.995868910799,-0.0131035596708,0.0757098453511,0.201931856222,-1.7120630451,-0.168339711227,9.35565863536
5740109,-0.00909934257964,0.0904627587913,0.000826575369607,0.995857925615,-0.00786213580247,0.0739471413286,0.201188845288,-1.71557080435,-0.171153935379,9.36343324152
5740189,-0.00883323582174,0.0896058087853,0.000794737607186,0.995937820031,-0.00642004172733,0.0724638288537,0.199040278482,-1.70139488862,-0.166378125387,9.37719597152
5740269,-0.00897748603412,0.0887083001245,0.000799562286971,0.9960168688,-0.0038520250364,0.0694453910614,0.197751138398,-1.68810093586,-0.169498143543,9.40029765982
5740348,-0.0096884469571,0.0885658807402,0.000861492139006,0.996022829355,-0.00231121502184,0.062100357587,0.199957484778,-1.67820920287,-0.182144061907,9.36028913544
5740429,-0.00932662908974,0.0887354777516,0.000830917239082,0.996011214071,0.000316031232745,0.0542878170107,0.201281292606,-1.67251358325,-0.1744087223,9.31042664289
5740509,-0.00818326880132,0.0882197165558,0.000724776081355,0.996067161602,0.000189618739647,0.04236356162,0.19824436675,-1.66239244682,-0.153008106915,9.30995782777
5740589,-0.00689195726721,0.087056387709,0.000602290035442,0.996179363132,-0.00201467906352,0.0330805580783,0.195145141052,-1.64075745418,-0.128914989882,9.31494378236
5740669,-0.00583884019159,0.0866609217797,0.000507918888842,0.996220625464,-0.00546570805273,0.0241052354616,0.193711295694,-1.63280428208,-0.109191876009,9.31338637195
5740749,-0.00434674164684,0.0863578691577,0.000376786552489,0.996254627243,-0.00966477575357,0.014463141277,0.194128058664,-1.62276513516,-0.0810774363965,9.28970700994
5740829,-0.0035694031665,0.0866885979535,0.00031059781581,0.996229014773,-0.0121842163741,0.00867788476618,0.195229496569,-1.62967033598,-0.0666029742891,9.29297706485
5740909,-0.00202482061812,0.0878061620069,0.000178481467805,0.996135505922,-0.0128445006235,0.00520673085971,0.198018809619,-1.66254387639,-0.0380464232453,9.35718834096
5740989,-0.00104611560182,0.0881613488242,9.25875303748e-05,0.996105653856,-0.0132406711731,0.00312403851583,0.200969467634,-1.67436713516,-0.019715391789,9.38494119916
5741069,-0.000869432205329,0.0884068236656,7.71659161018e-05,0.996084068572,-0.0147554436872,-0.0015310973822,0.202314172381,-1.67834862827,-0.0163782182277,9.38052393946
5741149,-0.000318164764055,0.0882933227518,2.82019679181e-05,0.996094466973,-0.0182184475645,-0.00730400935125,0.200992544922,-1.67690680147,-0.00599620828036,9.38481676846
5741229,0.000316454323472,0.0878926815127,-2.79220803383e-05,0.996129898966,-0.0211476300138,-0.0120448267171,0.198922498262,-1.67340808357,0.00597908167241,9.4089402808
5741309,0.000101058729956,0.0864761111181,-8.77202668016e-06,0.996253919398,-0.0241822096678,-0.0161663873209,0.194700639836,-1.64784567656,0.00191150784134,9.42054134622
5741389,-5.32349012407e-05,0.0850590300085,4.54457901516e-06,0.996375912274,-0.0264286475216,-0.0203420839291,0.190890454596,-1.62197374505,-0.00100787678934,9.43061444762
5741469,-0.000662813933888,0.083695463551,5.56698562026e-05,0.996491157492,-0.0264994400495,-0.0275300925701,0.189030033513,-1.59902856099,-0.0125757343744,9.45198119909
5741549,-0.00106548373276,0.0832782176975,8.90409356095e-05,0.996525762473,-0.0256905354433,-0.0356741083079,0.188765160987,-1.59244405554,-0.0202347094235,9.46120994748
5741629,-0.0013199324598,0.0835229395958,0.000110631298325,0.996504974448,-0.0252051926796,-0.0422632779964,0.188606237471,-1.59735189841,-0.0250695146189,9.4619587932
5741709,-0.00175490655487,0.0827548535552,0.000145727115235,0.996568378627,-0.0270424373287,-0.0500479903626,0.1880851933,-1.5780305287,-0.0332376413885,9.43607188236
5741789,-0.003356224182,0.0821180528906,0.000276542159215,0.99661691972,-0.0289961642411,-0.0564215780282,0.187772566797,-1.56452234554,-0.063517055048,9.42915886184
5741869,-0.00407346301898,0.0802994892324,0.000328159447346,0.996762404608,-0.0314454705729,-0.0640769411807,0.188436371019,-1.53032063755,-0.0771357200893,9.43602437716
5741949,-0.00515109771322,0.0794661011195,0.000410641778083,0.996824175238,-0.0337664344949,-0.0703729193181,0.190111723736,-1.51386975558,-0.0975173475809,9.43415818221
5742029,-0.00611682711471,0.0781918729197,0.000479764106833,0.99691944773,-0.0355847029096,-0.0762789565078,0.194948145919,-1.4884369156,-0.115731828226,9.42944716274
5742109,-0.00777758215161,0.0770870992825,0.00060135902602,0.996993844869,-0.0358242838355,-0.0785455086373,0.199552759475,-1.47054358979,-0.147490071057,9.45152024833
5742189,-0.00908827242782,0.0751625602559,0.000685064203298,0.997129642287,-0.035968032391,-0.0799054399149,0.202315527609,-1.43299253571,-0.17229110074,9.44968062922
5742269,-0.00948448497188,0.0748974721512,0.0007123972163,0.997145879849,-0.0356285914628,-0.0790186384357,0.203973188489,-1.42937609638,-0.179989113569,9.45959018539
5742349,-0.00947357238954,0.0734046871489,0.000697317361396,0.997256996506,-0.0354249269059,-0.0767837973023,0.204542094956,-1.40087001452,-0.179819517946,9.46266287711
5742428,-0.0102165928808,0.0737475279094,0.000755545618403,0.997224324066,-0.0348770381104,-0.0716116820691,0.201052228282,-1.40866606266,-0.194082970533,9.47001315595
5742509,-0.00974970852456,0.0729801048174,0.000713471479147,0.997285484925,-0.0324198545257,-0.059143231577,0.193850027541,-1.39706312026,-0.185642210298,9.49261925588
5742588,-0.00981488247931,0.0726456374678,0.000714932087798,0.997309264126,-0.0288170940676,-0.0474052606671,0.18782594685,-1.39177729599,-0.18704209864,9.50091567218
5742669,-0.00904875535888,0.071283411223,0.000646697962456,0.997414847038,-0.0228242272396,-0.0369569576295,0.182934428251,-1.36442436465,-0.172319720854,9.49535903465
5742749,-0.00910499985896,0.0710913719929,0.000648956021,0.997428039841,-0.0183771270198,-0.0302622857455,0.179999517092,-1.36189897548,-0.173541941155,9.50375664027
5742829,-0.00884149033868,0.0697708244476,0.000618409454466,0.997523672739,-0.014857486765,-0.0266711726765,0.178664260458,-1.33452636405,-0.168289769185,9.49179637186
5742908,-0.00889313333262,0.0682813655198,0.000608680123192,0.997626281135,-0.0140227727966,-0.0279220253269,0.179140176662,-1.30158280573,-0.168729768494,9.46235413537
5742989,-0.00835060514873,0.0668712463846,0.000559687818517,0.997726510899,-0.0147990145999,-0.0303752971629,0.181979866753,-1.27463406576,-0.158459280774,9.46480008742
5743069,-0.00770559555025,0.066156403749,0.000510909024671,0.997779380932,-0.0173932099892,-0.0314215702031,0.187940581422,-1.26373206544,-0.146550904158,9.48685779293
5743148,-0.00781659634312,0.0658929185387,0.000516196068079,0.997795949906,-0.0193754172842,-0.0303465737813,0.192794080408,-1.25934564673,-0.148743264663,9.49219155076
5743229,-0.00761846819516,0.0657554324726,0.000502056902946,0.9978065594,-0.0201390515998,-0.0241676051293,0.197834630107,-1.25719263584,-0.145030857479,9.49611006595
5743309,-0.00730407921848,0.0655988359086,0.000480186270695,0.997819228405,-0.0188944719432,-0.0174803935078,0.202987410234,-1.25350662765,-0.138972690513,9.49127857009
5743389,-0.00691810121303,0.0651465825092,0.000451660990212,0.997851621568,-0.0172963440264,-0.0130423764734,0.20607907831,-1.24363357742,-0.131507067677,9.48287300875
5743469,-0.00628592184914,0.0651250660995,0.000410250149034,0.997857226584,-0.0159117772149,-0.00782542588407,0.205805628848,-1.24441351193,-0.119605668829,9.49219488191
5743549,-0.00560824907264,0.0647228584405,0.00036375035091,0.997887451982,-0.0146553470665,-0.00469525553044,0.203938798925,-1.23674118699,-0.106718745536,9.49323902265
5743629,-0.00529079858645,0.0641583667028,0.000340154596775,0.997925646392,-0.0143271790389,-0.00281715331826,0.19941318048,-1.22567344755,-0.100662532722,9.49218956594
5743709,-0.00505010817733,0.0628702797607,0.000318135159438,0.998008879279,-0.0154073484067,0.00256660862366,0.194995049167,-1.20370991325,-0.0963105445354,9.51550190851
5743788,-0.0042502772314,0.0628815109435,0.000267796256425,0.998011913261,-0.0160554500274,0.0070739359732,0.19276986044,-1.20322106148,-0.0810100828247,9.5100962806
5743868,-0.00373598976688,0.0636843386578,0.000238409661152,0.997963070735,-0.0164443109998,0.0123324727517,0.192286127327,-1.21705354021,-0.0711115453003,9.49679725689
5743949,-0.00346178868403,0.0642286912101,0.000222807551502,0.997929176646,-0.0166776275833,0.0163389749417,0.192847267582,-1.22750780894,-0.0658906832837,9.4962398678
5744029,-0.0027450116911,0.0643727047153,0.000177071758158,0.997922135462,-0.0168176175334,0.0200199464401,0.194886711981,-1.22971022736,-0.0522236787691,9.49183529153
5744109,-0.00206548821623,0.0647396104541,0.000134000297189,0.997900044414,-0.0181786816878,0.023931289585,0.195684688559,-1.23486240106,-0.0392350727399,9.4769821173
