timestamp,orien_x,orien_y,orien_z,orien_w,ang_v_x,ang_v_y,ang_v_z,lin_acc_x,lin_acc_y,lin_acc_z
9008408,-0.0123215143804,0.0897576757121,0.00111051828238,0.99588679411,-0.00170714152412,0.0190810357186,-0.0208040444832,-1.72558585492,-0.234958984522,9.4922618874
9008488,-0.0123353257739,0.0894685329672,0.00110815291676,0.99591264343,-0.00102428491447,0.0148541419229,-0.0209962279192,-1.71530478443,-0.234588675626,9.46694300768
9008568,-0.0126997536046,0.0895185501838,0.00114153981326,0.995903530628,-0.000614570948684,0.0170005963215,-0.0151518771203,-1.71991004962,-0.2420279356,9.48670702409
9008649,-0.013316548975,0.090768057984,0.00121383690969,0.99578228332,-0.000368742569211,0.020416919268,-0.00568560578047,-1.74853058665,-0.254392357063,9.50814224058
9008728,-0.014217986164,0.0904693969435,0.00129172186858,0.995796901251,-0.000221245541526,0.0220410229744,0.00169691726926,-1.74128205194,-0.271387816582,9.50017381603
9008808,-0.0144465272199,0.0910014920564,0.00132027317631,0.995745089455,-0.000132747324916,0.0170558243378,0.00910626152933,-1.74770683859,-0.27512074781,9.47791508918
9008888,-0.0144070800531,0.0918098267946,0.00132846184409,0.995671445276,-7.96483949495e-05,0.0102334946027,0.0148289382698,-1.7534770719,-0.272811523393,9.42337958451
9008968,-0.014670444457,0.0914611924335,0.00134757135894,0.995699659732,-4.77890369697e-05,-0.00194801440617,0.0186882343755,-1.73826443894,-0.276453812229,9.37796901291
9009049,-0.0151481126548,0.091344986029,0.0013896754116,0.995703116904,0.00252546694659,-0.0177707210407,0.0197267418545,-1.73536178348,-0.285342950179,9.37418584623
9009128,-0.0148139293721,0.0910236354454,0.00135418977566,0.995737621794,0.00449511059819,-0.0289671052673,0.019498466219,-1.73146540871,-0.279423685147,9.38723883684
9009208,-0.0142257968465,0.0909813015558,0.00129980550506,0.995750139331,0.00567689678915,-0.0369620059876,0.0163816704075,-1.72984584435,-0.268210680815,9.38333904307
9009288,-0.0140020191478,0.0910199928604,0.00127990352755,0.995749801007,0.00766303868811,-0.0417589464198,0.0123831426133,-1.72983178639,-0.263877079875,9.37932322565
9009372,-0.0129865017432,0.0915221197352,0.0011936638605,0.995717644485,0.0118345542577,-0.0433600404948,0.00742988556796,-1.74131551959,-0.244996348023,9.38912416366
9009448,-0.0114363404319,0.0926657755084,0.00106440772946,0.995631021616,0.013911773538,-0.0434693168168,0.00445793134078,-1.7630498098,-0.21571139646,9.38686444082
9009529,-0.0108579636839,0.0922264567394,0.0010057379669,0.995678348561,0.0134553448604,-0.0460890229788,0.000971998558619,-1.75693677065,-0.205083610337,9.40035265741
9009608,-0.0102572128054,0.0915088790052,0.00094263129914,0.995750985987,0.0131814876538,-0.0561746479052,0.000583199135172,-1.74249503968,-0.193679115177,9.3983899404
9009689,-0.00930405627002,0.0910295492288,0.00085051248866,0.995804364488,0.0138685534527,-0.0647801632299,0.00247836978841,-1.73694246326,-0.17606251061,9.41947838562
9009768,-0.00825044501212,0.0907400785514,0.000751773293075,0.995840149391,0.0138551028706,-0.0707948525476,0.00659530261059,-1.73959642156,-0.156873421893,9.46517143567
9009848,-0.00857191542257,0.0878055315253,0.000755608108776,0.996100466798,0.012569962337,-0.0778091866299,0.0107682225497,-1.67846071304,-0.162598220616,9.44518207283
9009928,-0.00845727181333,0.0869057151009,0.000737803391706,0.996180368649,0.0139273283241,-0.0837205473251,0.0154004248206,-1.65710217856,-0.1600475957,9.42385106865
9010008,-0.00850565791152,0.0875127068267,0.000747247378271,0.996126809974,0.0155931280393,-0.0859902935579,0.018179746183,-1.66583487281,-0.160672002244,9.40626406282
9010088,-0.00795875104902,0.0876119829396,0.000699996099828,0.996122637396,0.0140384674997,-0.0890549015434,0.0177188886932,-1.66963796836,-0.150512158866,9.4170202541
9010171,-0.00699173545733,0.0859778369533,0.000603383503456,0.996272333811,0.00842308049981,-0.0994074675639,0.0140368537076,-1.63480969996,-0.131966404206,9.40025021276
9010249,-0.00590430648552,0.0841601386326,0.000498685252371,0.996434624822,0.00505384829989,-0.111152977975,0.0118276327163,-1.5971533273,-0.11126214477,9.38683630564
9010329,-0.00585055952966,0.0835714447523,0.000490664647744,0.996484492515,0.00303230897993,-0.119477354406,0.0105021001215,-1.58700935234,-0.110331757077,9.39435027215
9010408,-0.00608182688264,0.0824400716404,0.000503108212706,0.996577339122,0.00181938538796,-0.127451810695,0.00630126007288,-1.56344529524,-0.114561927781,9.3844934421
9010496,-0.00660341932616,0.0813725379765,0.000539136771243,0.996661735118,0.00109163123278,-0.132236484469,0.00548351628957,-1.54164541567,-0.124282635184,9.37738224324
9010568,-0.00650131267659,0.079307617114,0.000517243871525,0.996828855551,0.00491187935429,-0.133404528487,0.0071213203269,-1.51491853846,-0.123411294978,9.45954620385
9010648,-0.00673654878005,0.0784240502147,0.000529951779753,0.996897189488,0.00464988785842,-0.134531044959,0.00427279219614,-1.50391023563,-0.128395154672,9.49854951308
9010728,-0.00729120623824,0.078026297628,0.000570660909712,0.996924475342,0.00278993271505,-0.13435557472,0.00256367531768,-1.49706583376,-0.139046915801,9.50423440634
9010809,-0.00876513545527,0.0773741673335,0.000680260762174,0.996963363357,0.00465379005927,-0.132973222392,0.00153820519061,-1.48505832716,-0.167225207586,9.50836360279
9010888,-0.00911746722223,0.0759573371628,0.000694574230882,0.997069141178,0.00704917465018,-0.133420881179,0.000922923114367,-1.4546300671,-0.173597695353,9.49025098638
9010968,-0.0101394223013,0.0737123622033,0.000749478536375,0.997227716249,0.0076350252818,-0.134966546636,0.00055375386862,-1.4071638508,-0.192504658471,9.46453936624
9011049,-0.0102085817894,0.0709279458653,0.000725940174445,0.997428937,0.00798653566078,-0.135042565787,0.00203501256702,-1.34995370111,-0.193314349038,9.44192978918
9011128,-0.0102906999437,0.0698914657886,0.000721033778669,0.997501260458,0.00904882201109,-0.13551386734,0.00547790815483,-1.32927456075,-0.194757844042,9.43722258908
9011208,-0.00980697456339,0.0669537499278,0.000658122359154,0.997707665349,0.00840912363689,-0.13835078864,0.00796933556898,-1.27592622815,-0.186047134404,9.46193158812
9011289,-0.0100277825707,0.0645109533628,0.00064828499203,0.997866403984,0.00504547418213,-0.140904321543,0.00818712183309,-1.23003085896,-0.190397515261,9.47148974389
9011368,-0.0105206342132,0.0631289368864,0.000665520968583,0.997949703475,0.00302728450928,-0.143287821407,0.00491227309985,-1.20177537695,-0.199472088258,9.45878928456
9011448,-0.0114128981354,0.0607610039999,0.000694788382512,0.998086851641,0.0047962011358,-0.143440851142,0.000393223491139,-1.15776760898,-0.216648420191,9.47128030292
9011529,-0.011475706957,0.0594753961834,0.00068377792621,0.998163572691,0.00756031135756,-0.142255598798,-0.00359527645848,-1.14189743551,-0.219532194205,9.54557314025
9011608,-0.0108684083925,0.0601483243818,0.000654941250691,0.998130065585,0.010495847675,-0.138564616962,-0.00854251679702,-1.16254227234,-0.209291450312,9.60858419543
9011688,-0.0101949714484,0.0607606199255,0.000620631919301,0.998100107424,0.0131085495884,-0.134647267614,-0.0123622411231,-1.17373207361,-0.196203819162,9.60257693815
9011768,-0.00939682041766,0.0602698970999,0.000567402058519,0.998137724627,0.0155275508594,-0.126762887206,-0.0142283856572,-1.16009524026,-0.180210954827,9.56952390337
9011849,-0.00797748333606,0.0588520521695,0.00047032151032,0.998234729166,0.0157018814375,-0.11564690804,-0.0153480723777,-1.13012590514,-0.152658723775,9.54993150267
9011928,-0.00754648981832,0.0572574610508,0.000432815289098,0.998330830094,0.0132523394157,-0.10599749011,-0.01601988441,-1.10184923693,-0.144746511121,9.57313140648
9012009,-0.00636234868737,0.0571822773417,0.000364417275268,0.998343415302,0.00795140364941,-0.0933967983681,-0.0138688312606,-1.09613598381,-0.121563830745,9.53653369374
9012088,-0.00560669742513,0.0574482622904,0.000322632953721,0.998332689043,0.00221670182087,-0.0832822429544,-0.0104497490637,-1.0943839731,-0.106457121689,9.47698610004
9012168,-0.00469126918001,0.0573746222823,0.000269606896868,0.998341660968,-0.00377825964502,-0.0738079892145,-0.00414139913091,-1.08926262385,-0.088773970279,9.44508826647
9012248,-0.00431976090534,0.0579018570375,0.000250544871936,0.998312902774,-0.00950368683187,-0.0647179164789,0.00177206113608,-1.10270980575,-0.0819948020893,9.47383359953
9012328,-0.00391379749029,0.0585979928596,0.000229737212383,0.998273962719,-0.0125132530825,-0.0579868026531,0.00744858760358,-1.12035492154,-0.0745754188512,9.50999499248
9012408,-0.00368683045238,0.0598610173993,0.000221095418308,0.998199888296,-0.0126162325871,-0.0530967542347,0.0129829537914,-1.1465043018,-0.0703632090744,9.52450922327
9012488,-0.00394143271162,0.0609498039554,0.0002406788934,0.998133021485,-0.0131037103512,-0.0497370351223,0.0150265033197,-1.16434871145,-0.0750184881888,9.49802299734
9012572,-0.00404761225653,0.0604811227383,0.000245255132251,0.99816110447,-0.0138218870712,-0.0443156831631,0.0124214224835,-1.15254986164,-0.0768539749933,9.47542749714
9012649,-0.00429028981475,0.0616644281341,0.000265065156761,0.998087682249,-0.0129757229188,-0.0368059713729,0.0074528534901,-1.17994705565,-0.0817859897323,9.51238785204
9012729,-0.00410377134512,0.0632461511872,0.000260070618339,0.99798948681,-0.0128937144888,-0.0310230741145,0.000640501540905,-1.21122942236,-0.0782808540933,9.5175652332
9012808,-0.00501067982777,0.0641462109481,0.000322083521046,0.997927879644,-0.0145472696767,-0.0296817860667,-0.0106836406735,-1.22233739707,-0.0950919658251,9.46823864553
9012888,-0.00595781333259,0.0634919036189,0.000379044455698,0.997964497846,-0.0151137127279,-0.0318568436683,-0.018329506125,-1.21248219044,-0.113318918509,9.4896391883
9012968,-0.00704643496225,0.0629274573519,0.000444305900213,0.997993128963,-0.012048058067,-0.0374187788438,-0.0199371949657,-1.21063920928,-0.13502899759,9.56089803446
9013048,-0.00793863361856,0.0628191420161,0.000499700938385,0.99799322833,-0.0072288348402,-0.0403302498877,-0.0196247380857,-1.20474501727,-0.151646347528,9.53063019153
9013128,-0.00872562382826,0.0640822246324,0.000560330540608,0.997906317249,-0.00433730090412,-0.0408000623296,-0.0190115738963,-1.22538993883,-0.166165740646,9.5002590573
9013208,-0.00928525602056,0.0641066468701,0.000596499470163,0.99789967734,-0.00260238054247,-0.0389534994875,-0.0148124648295,-1.23562211027,-0.178229258841,9.57564966167
9013288,-0.00971670417224,0.0636883287358,0.00062012906653,0.997922340607,-0.00156142832548,-0.0369941816593,-0.0114416192665,-1.23481822832,-0.187622151252,9.6328550326
9013369,-0.00999086418865,0.0633214351827,0.000633939890855,0.997942972619,-0.00604513773283,-0.0311360002863,-0.010696182113,-1.22068894969,-0.191821365702,9.57835337356
9013448,-0.00974728685014,0.0628856704976,0.000614209703911,0.997972948327,-0.0146950242377,-0.0229385007864,-0.0111002999439,-1.2045499372,-0.185961188562,9.51811905905
9013528,-0.00972087723812,0.0623047925929,0.000606865117904,0.998009643781,-0.0215877163865,-0.0184456911479,-0.00964001039658,-1.18935986588,-0.184839283938,9.48676687366
9013608,-0.0095461288234,0.0606584842909,0.000580148584463,0.998112760732,-0.0270004018601,-0.0170270755492,-0.00578400623795,-1.16085278965,-0.182011359669,9.51368481414
9013690,-0.00978372052108,0.0598069732462,0.000586212262714,0.998161841146,-0.0306737032058,-0.0148988360056,-0.00134195343546,-1.1459033254,-0.186778949591,9.52624427593
9013768,-0.00830009118267,0.0608069166857,0.000505656160878,0.998114909057,-0.0350061343205,-0.00893930160337,0.00217465836896,-1.15680552063,-0.157317781131,9.45764434022
9013849,-0.00788108678787,0.0623015122777,0.000491974716492,0.99802613593,-0.0388826631737,-0.0104718616996,0.00598738569746,-1.18609175354,-0.149457306862,9.46197421033
9013928,-0.00779875455864,0.0634100921635,0.000495532137283,0.997956960037,-0.0407828904242,-0.0126684679417,0.00827502209456,-1.20701537561,-0.147853484459,9.45858662825
9014010,-0.008578422058,0.0638081652515,0.000548511444964,0.997925161451,-0.041497336713,-0.007601080765,0.00666777350258,-1.20616201956,-0.161495821144,9.39191063418
9014088,-0.00940790122926,0.0635335100641,0.000598953718368,0.997935181135,-0.0423516945477,0.000973322340005,0.00400066410155,-1.19439725812,-0.176145567638,9.34065228993
9014168,-0.011189302102,0.0639016175659,0.000716524065604,0.997893215421,-0.0411615490027,0.00526658408009,-0.00100512203077,-1.21295635902,-0.211511053962,9.42960736639
9014248,-0.0120810049306,0.0654009340373,0.00079186249238,0.997785618307,-0.0366162511226,0.00103150014074,-0.00230583346431,-1.24587905467,-0.229139043266,9.46023549649
9014328,-0.0130582391643,0.0665019881745,0.000870400385908,0.997700461242,-0.033463382333,-0.00278662040725,-0.00308626032443,-1.26922397455,-0.248095542659,9.47526049223
9014408,-0.0137731387117,0.0653482139404,0.000902064274249,0.997767055913,-0.029443210752,-0.00720594304336,-0.00653434687074,-1.24564196041,-0.261384803622,9.46512187639
9014489,-0.014290828857,0.0644954877211,0.000923712067239,0.997815238925,-0.0253283475575,-0.0124116769938,-0.00902888885999,-1.2317321721,-0.271752561861,9.48441724449
9014569,-0.0154375335311,0.0658903706501,0.00101952265126,0.99770692199,-0.0207309793335,-0.0176635676714,-0.00882285380769,-1.26265120634,-0.294493208259,9.5132327173
9014648,-0.0168615118515,0.0683950165819,0.00115611615789,0.99751515002,-0.0171211782762,-0.0229431523852,-0.00742216259192,-1.30873594597,-0.321066285063,9.49341187525
9014728,-0.0179849919988,0.0698974434615,0.00126039301591,0.997391246638,-0.0128268473345,-0.0282393535208,-0.00700743792393,-1.33710505025,-0.342277374798,9.48678661368
9014808,-0.0187587119633,0.0690496553458,0.00129861224062,0.99743599766,-0.00556765809338,-0.0343969046324,-0.00760998324605,-1.31869232824,-0.356440549634,9.47203754926
9014888,-0.0185892101609,0.0693332644795,0.00129218510109,0.997419505504,6.49256356679e-05,-0.0389428154223,-0.00797151043933,-1.31961570334,-0.352009765572,9.43948551418
9014969,-0.0175636290793,0.0717660478908,0.00126392777282,0.997266040628,0.00387016593456,-0.0412446718348,-0.00691135657091,-1.35847695496,-0.330676522185,9.38404126822
9015048,-0.0165655903943,0.0729738292096,0.00121225429081,0.997195533436,0.00402485980658,-0.0443285459281,-0.00925509468009,-1.38155428577,-0.311891072002,9.38381470356
9015128,-0.0170240616573,0.0729496951732,0.00124540026013,0.997189536787,0.00241491588395,-0.0474559405685,-0.0127897878529,-1.38510561712,-0.321449356336,9.41073324352
9015208,-0.017121233205,0.0705205404138,0.001210591374,0.997362647798,-0.00153088089986,-0.0518865177215,-0.0136335335722,-1.34773208853,-0.325508385774,9.47716260236
9015288,-0.0171925970094,0.0694902294731,0.00119779134209,0.997433751139,-0.00262128878577,-0.0562476242592,-0.0107342605121,-1.33320883686,-0.328183223603,9.516062537
9015368,-0.0173906250888,0.07108314058,0.00123950458447,0.997318011926,0.00183274722024,-0.0639725689193,-0.00346072587703,-1.36399921325,-0.331942907795,9.51426338036
9015448,-0.0169793165228,0.0716026469234,0.00121907017154,0.997287961239,0.0100391396228,-0.0766956468832,0.00430891539572,-1.37122069128,-0.323424810839,9.49450911342
9015528,-0.0159369072479,0.0725420225174,0.0011592982233,0.997237346866,0.0170914253717,-0.0873093240917,0.0106734604052,-1.38560922507,-0.302751641874,9.46877018363
9015610,-0.0151876305353,0.0713046650313,0.00108583902201,0.997338358621,0.0230255570669,-0.0953802906627,0.0153435675338,-1.36694844642,-0.289629479998,9.50647810261
9015688,-0.0155326414506,0.0694350859953,0.00108125131542,0.997464955163,0.0270117261455,-0.100648560667,0.0164428715652,-1.33468300462,-0.297079073497,9.53556719848
9015768,-0.0148828612679,0.0694750269654,0.00103660759904,0.997472128189,0.0319575679614,-0.104660902792,0.0128455533693,-1.33495619315,-0.284549997809,9.53243052172
9015854,-0.0146543751111,0.0691408896945,0.00101575719648,0.997498749322,0.0366278332968,-0.107493998129,0.00983578232891,-1.32602213996,-0.279666174222,9.51522562505
9015928,-0.0138409351971,0.0673321780413,0.000934150355508,0.997634168258,0.0398556825595,-0.111322305638,0.00590146939734,-1.28115738066,-0.262131249944,9.44432938504
9016008,-0.0124813562299,0.0671420450352,0.000839985145834,0.997665001872,0.0405153219327,-0.118727570881,0.000986741269634,-1.26142113005,-0.233414362759,9.32637428874
9016090,-0.0111618127172,0.0664231078742,0.000743089968509,0.997728837157,0.0396340353723,-0.12700194058,-0.00111071548407,-1.24790343853,-0.208762205302,9.32838496143
9016168,-0.00985698947287,0.0657050121692,0.000649087972225,0.997790193287,0.0314428423297,-0.138351913322,-0.000666429290441,-1.23931398328,-0.185112364685,9.36741975127
9016248,-0.00897753684536,0.0650836215778,0.000585555846339,0.997839257175,0.0222712258895,-0.146438967151,-0.000399857574264,-1.22697770516,-0.168528258655,9.36426498675
9016328,-0.00761898374047,0.0637701500266,0.000486868921012,0.997935409739,0.0133627355337,-0.152568269633,0.00231422582421,-1.20592898882,-0.143494324578,9.39613037144
9016408,-0.00632965794818,0.0638486754216,0.000404974752228,0.997939436074,0.00801764132022,-0.161354131859,0.00777388641646,-1.21149569163,-0.119615417989,9.42817829123
9016488,-0.00534951283412,0.0641565704891,0.000343919877044,0.997925447563,0.00268213448482,-0.169605479626,0.0119010628947,-1.22752498212,-0.101936191711,9.50678324427
9016568,-0.00472576669431,0.0617432179362,0.000292345100894,0.998080836757,-0.00222192986227,-0.178387498839,0.0160801290275,-1.18518838038,-0.0903709752806,9.54221462796
9016649,-0.00433714851862,0.059370373342,0.000257955593454,0.998226568155,-0.00473867840906,-0.184933780551,0.0181618786458,-1.14278758756,-0.0831924252563,9.57281084464
9016729,-0.00386703175838,0.0571309057348,0.000221290123633,0.998359182211,-0.00284320704543,-0.190564309824,0.0177081681709,-1.10178480107,-0.0743363120874,9.59499929731
9016808,-0.00388043938488,0.057539706095,0.00022365157574,0.998335652169,-3.16398141189e-06,-0.196071077695,0.0127533512098,-1.1051952886,-0.0742898878384,9.55563993239
9016888,-0.00364330307933,0.0569572937783,0.000207851492892,0.998369946376,0.00255224197993,-0.199375138418,0.00594925048004,-1.09335521149,-0.0697130501347,9.55093850655
9016968,-0.00285484718574,0.0527258573582,0.000150734550377,0.998604932439,0.00153134518796,-0.200506194728,-0.0062213211256,-1.0096367121,-0.0545170988796,9.53423128142
9017048,-0.00249130832426,0.0493282204185,0.000123041977941,0.998779507656,-0.00120964319454,-0.201184828515,-0.0165034945192,-0.943843301674,-0.0475543096207,9.53186839166
9017129,-0.00169008112202,0.0476496936214,8.06235428177e-05,0.998862675158,-0.00583406665427,-0.202017698848,-0.0248012488627,-0.907719137742,-0.0321238882627,9.4923828514
9017210,-0.00149942206337,0.048346634196,7.25769620871e-05,0.998829489667,-0.0107371710374,-0.200388970741,-0.0293542114073,-0.9169298408,-0.0283722992662,9.44953791397
9017288,-0.00194200589723,0.0491302465889,9.5526769409e-05,0.998790487719,-0.0145304137902,-0.199411733876,-0.0316602988726,-0.935624371765,-0.036895253339,9.4872772955
9017368,-0.00240081712937,0.0472164609979,0.000113484988479,0.998881789307,-0.0151035991961,-0.201379532127,-0.0287870507372,-0.903506040295,-0.045839748439,9.53553888218
9017448,-0.00130205490349,0.0454735959396,5.92704818552e-05,0.998964690673,-0.0141704402552,-0.2034115912,-0.0232318913028,-0.870348671785,-0.0248702272372,9.54007497726
9017528,-0.00231655753948,0.0435303569119,0.000100936525359,0.999049413893,-0.0123334747063,-0.20377944652,-0.0122363745358,-0.830821797065,-0.0441313965962,9.51574215554
9017608,-0.00357131041828,0.0428023524715,0.000153001682668,0.999077164665,-0.0112312953769,-0.201446019344,-0.00308492410688,-0.81811899987,-0.0681379468445,9.53035172277
9017688,-0.00520043926855,0.0422897254463,0.000220125059697,0.999091830663,-0.0105699877793,-0.198768892854,0.00155456602757,-0.814806884541,-0.100019549113,9.60711279025
9017768,-0.00604273508406,0.0406221402646,0.00024567611465,0.999156277424,-0.0101732032207,-0.195459856714,0.000932739616542,-0.784568035754,-0.116514888647,9.63210045613
9017848,-0.00658877878925,0.0386920353954,0.000255129858113,0.999229427759,-0.01121220267,-0.192197364846,-0.00199449659885,-0.74487691154,-0.126651512534,9.60303974512
9017930,-0.00825269060477,0.0391865170346,0.00032365384228,0.999197780837,-0.0135383625854,-0.189388489602,-0.00843342900416,-0.747398455274,-0.1571543438,9.51281958804
9018010,-0.0110581467636,0.0386055275284,0.000427250274045,0.999193248622,-0.0140826784117,-0.190257304824,-0.0144252387547,-0.734067331221,-0.209932546465,9.48310835072
9018088,-0.0126321172426,0.0378911426271,0.000479027662227,0.999201912256,-0.0127065076616,-0.191629974081,-0.0188717047279,-0.720083152639,-0.239684106737,9.47773145697
9018168,-0.0135578026788,0.0349313312829,0.000473924965112,0.99929763508,-0.00762390459698,-0.192453575634,-0.0215395843118,-0.666921074445,-0.258492723563,9.52430471524
9018248,-0.0142621876382,0.0333494685074,0.000475949613423,0.999341871647,-0.00457434275819,-0.192947736567,-0.0222889319393,-0.640051651014,-0.27336919615,9.57523300615
9018328,-0.0149161287047,0.0320758909355,0.000478747807592,0.999374012633,-0.00274460565491,-0.194521303311,-0.0189073299626,-0.619141593636,-0.287562323354,9.63092909812
9018408,-0.0163218164211,0.0322480246183,0.000526690540901,0.999346479362,0.0034615173446,-0.193762683111,-0.0134728482848,-0.626467432988,-0.316668333954,9.69164065223
9018488,-0.0173319580458,0.0325994893218,0.000565398557109,0.999318045895,0.00888795139015,-0.192456130868,-0.00978646921676,-0.635172499588,-0.337244402472,9.71920903856
9018568,-0.0177782302949,0.0313680401627,0.000558031172497,0.999349623098,0.0146979521863,-0.188692369092,-0.00587188153005,-0.602806573483,-0.341210337772,9.58683072709
9018648,-0.0172648481682,0.0299989076857,0.000518237175584,0.999400681401,0.0181839526639,-0.183879971658,-0.00352312891803,-0.571894849852,-0.328745848659,9.51195272336
9018728,-0.0159023119691,0.028844903417,0.000458949728809,0.999457291427,0.0168700324588,-0.17290442203,-0.00211387735082,-0.551193034179,-0.303550062907,9.53645776927
9018808,-0.015934381476,0.0270396358453,0.000431072278014,0.999507262483,0.0101220194753,-0.159933741331,-0.0033967767178,-0.515548188671,-0.303516061914,9.51668429291
9018888,-0.0159191307061,0.0256137486802,0.000407934193843,0.999545071893,0.000539240886168,-0.150022882604,-0.00459220639945,-0.487218096552,-0.302537980654,9.49548282062
9018968,-0.0167267167619,0.0258261693611,0.000432191702731,0.999526407421,-0.0111700871278,-0.144076367368,-0.00445808408552,-0.490331335226,-0.317274022523,9.47677643309
9019048,-0.0169682703349,0.0268958238625,0.000456606601056,0.999494114025,-0.0181956839361,-0.143913978718,-0.00267485045131,-0.511352891712,-0.322284924989,9.48901577685
9019128,-0.0160575936307,0.0271943321558,0.000436893504874,0.9995010911,-0.0202825917138,-0.148073446143,0.00137492015945,-0.521811044109,-0.307813794349,9.57728339921
9019208,-0.0148930823239,0.0267626005153,0.00039876471704,0.999530790071,-0.0194062860732,-0.145886535922,0.00550754277175,-0.517790868409,-0.287878368162,9.65801671189
9019288,-0.0147278325609,0.025601538224,0.000377219764431,0.999563659751,-0.0171777424429,-0.141594559359,0.00968987658498,-0.496703990039,-0.285493919091,9.68586656522
9019368,-0.0137613818847,0.025182947579,0.000346694970311,0.999588076821,-0.0103066454657,-0.132208332438,0.0160304874261,-0.48692490501,-0.26586731703,9.65397418352
9019448,-0.0132404537399,0.0248872362154,0.000329649327322,0.999602524601,-0.00618398727945,-0.122745385732,0.0189834738078,-0.478423832166,-0.25433077596,9.59868630943
9019528,-0.0112141817274,0.0260265616351,0.000291983879854,0.999598306803,-0.00371039236767,-0.113662097216,0.0143699147149,-0.500138247054,-0.215326549072,9.59544110572
9019608,-0.009123150233,0.0259773025058,0.000237084718396,0.999620873969,-0.00903727640399,-0.113746094906,0.00606780846018,-0.496407484365,-0.174206920654,9.54297632847
9019692,-0.00804775582401,0.0252461037742,0.000203245848131,0.999648851628,-0.0135104770102,-0.116350633889,0.000235164584412,-0.482198018451,-0.153605286426,9.53927020138
9019769,-0.00746830232923,0.0236427357124,0.000176625399922,0.999692559896,-0.0157687073124,-0.11833904734,0.000141098750647,-0.454997565953,-0.143638507549,9.61294271775
9019848,-0.00701047508726,0.0223591073712,0.000156791018165,0.999725411787,-0.0162722653708,-0.117829335165,8.46592503883e-05,-0.433170630637,-0.135743078895,9.67821520218
9019928,-0.00677447888439,0.0220668678898,0.00014953137571,0.999733533207,-0.0148716399601,-0.113692297307,5.0795550233e-05,-0.427735914759,-0.131245241868,9.68362044944
9020008,-0.00731531095458,0.0233954849129,0.000171196690143,0.999699508954,-0.0123285044677,-0.109081624284,0.00428737794476,-0.452726664822,-0.141475228617,9.66627346351
9020088,-0.0075071509738,0.0239089661041,0.000179544606565,0.999685936576,-0.00739710268064,-0.107592290655,0.00853208762732,-0.461256770378,-0.144740178674,9.63647223851
9020169,-0.00682318459115,0.0238152187278,0.00016254552202,0.999693079444,-0.00230981130107,-0.105847310355,0.00809908300663,-0.454643245576,-0.130179157253,9.53599154623
9020249,-0.00600604781495,0.0229380361688,0.000137805687745,0.999718837922,-0.00138588678064,-0.101820491745,0.00485944980398,-0.43295803841,-0.113302258756,9.42925561866
9020328,-0.00588566740931,0.021836639957,0.000128556082319,0.999744219062,-0.0029599823757,-0.0951474999637,-0.00134123073223,-0.409651846972,-0.110358724639,9.37239666709
9020408,-0.00572057432138,0.0217282106064,0.000124329231759,0.99974754035,-0.00773565028589,-0.0907180148337,-0.00506163905396,-0.408117980742,-0.107395503338,9.38401054786
9020488,-0.00639458291925,0.0222273162104,0.000142172450273,0.999732481972,-0.0118781212164,-0.0880603237557,-0.00814526416992,-0.420605190301,-0.120940461182,9.45346753965
9020568,-0.007743638067,0.0236526196138,0.000183214079839,0.999690230065,-0.016492054082,-0.0907226097236,-0.0112725094239,-0.452278952803,-0.147981629004,9.55140547374
9020648,-0.00969095686856,0.023898731564,0.000231678636395,0.999667385839,-0.0184090336784,-0.0970025719803,-0.0114460963304,-0.460748723,-0.186711825303,9.62908242731
9020728,-0.0114926279114,0.0230788282703,0.000265324592272,0.999667553136,-0.0110454202071,-0.105878830072,-0.00686765779825,-0.449789433996,-0.223836312711,9.73362827963
9020808,-0.0132784237653,0.0228528005012,0.00030355522863,0.999650609376,0.00444068947377,-0.108224754497,-0.00199214437164,-0.444889801755,-0.258321433623,9.72189611939
9020889,-0.0145218129907,0.0230309033053,0.000334574523507,0.999629222512,0.0179892558969,-0.106652478721,0.000507473622865,-0.44434422407,-0.279970186834,9.63393280713
9020968,-0.0142236666144,0.0234607554682,0.000333823644383,0.99962351354,0.0286725361195,-0.100175142457,-0.00139827607213,-0.44760817995,-0.271172203653,9.52680644209
9021048,-0.0127878485145,0.0251352534437,0.000321553722928,0.999602214167,0.0338054340687,-0.095863050637,-0.00424448613497,-0.4782969734,-0.243148497973,9.50155611013
9021129,-0.0131218347014,0.0260824021817,0.000342394962684,0.999573613355,0.029222751732,-0.0979583862211,-0.0110604929102,-0.495513148639,-0.249079190337,9.48520881012
9021208,-0.0135871482908,0.0255041019164,0.000346672813835,0.999582317773,0.0158308907933,-0.103472488186,-0.0206840677744,-0.484055618676,-0.257665429241,9.47611869061
9021289,-0.013797851548,0.0250340623481,0.000345557500334,0.999591314291,0.00396456367699,-0.107206639427,-0.0273095928158,-0.47765994103,-0.26305659275,9.52668893776
9021368,-0.0134396520747,0.023531903148,0.0003163767977,0.99963269514,-0.00570937296159,-0.110724200355,-0.0283050774104,-0.454429500995,-0.25934810604,9.64322234581
9021449,-0.0137887197174,0.02249454002,0.000310278938973,0.999651824689,-0.0106623548218,-0.11198335679,-0.025922537737,-0.439294136144,-0.269094022316,9.75240729787
9021528,-0.0130724974684,0.0236789442272,0.0003096562436,0.999634093818,-0.00980293338478,-0.110610400343,-0.0155535226422,-0.460619278317,-0.254112017637,9.71400991705
9021609,-0.0119452570839,0.0248803844294,0.000297315859193,0.999619021881,-0.00801021033818,-0.110212316536,-0.00252107260191,-0.477005666111,-0.228842243541,9.57365560721
9021688,-0.00924010945183,0.0254964345598,0.000235676532345,0.999632180684,-0.00906302681753,-0.111676226498,0.00657546760663,-0.48492213746,-0.175612572687,9.49830156745
9021769,-0.00737961440982,0.023794372176,0.000175647809178,0.999689620978,-0.0182085179344,-0.118088543274,0.00990494142445,-0.450407113042,-0.139604627353,9.45524392509
9021848,-0.0072457485098,0.0231906549783,0.000168083273845,0.999704788624,-0.0275270231576,-0.124064383647,0.0101998654693,-0.43999316553,-0.137392893599,9.47753279304
9021928,-0.0078876008472,0.0229667981557,0.000181206375063,0.999705096066,-0.0386520970906,-0.13020402824,0.00952543977327,-0.43757551968,-0.150191643142,9.51724233208
9022008,-0.00749328315797,0.0227454874244,0.000170487275106,0.999713191092,-0.044050071266,-0.137719025549,0.01039785454,-0.438758553995,-0.144463363571,9.6361178614
9022088,-0.00642271496695,0.0222271247365,0.000142796712568,0.999732305804,-0.0447347154025,-0.145633544426,0.0113469934616,-0.432764609936,-0.124985244705,9.72683621245
9022172,-0.0069003725562,0.0197161646094,0.000136078574102,0.999781795791,-0.0379087708395,-0.154639156366,0.0123421668759,-0.387509134614,-0.135564448825,9.82029271013
9022248,-0.00635810784752,0.0175411418635,0.00011154788999,0.99982592003,-0.0295563034871,-0.160042523531,0.0129392709246,-0.344075278132,-0.124673719344,9.80214635728
9022328,-0.00740542375988,0.015328454949,0.000113530157029,0.999855082139,-0.0198622323996,-0.159453333276,0.0111690830464,-0.298143090463,-0.143996659585,9.72039017643
9022408,-0.0073720054535,0.0153449764455,0.000113139646723,0.999855075715,-0.0165999301158,-0.159099819124,0.00116747902886,-0.294046954131,-0.141225213768,9.57652608218
9022488,-0.00765651887271,0.0151196839422,0.000115780775113,0.999856369421,-0.0167709990529,-0.161441851001,-0.00994176411924,-0.286082608514,-0.144829589931,9.45597054188
9022569,-0.00827806678267,0.0140450065115,0.000116280956754,0.999867090108,-0.0202791609068,-0.168806730988,-0.0212899006842,-0.26286864836,-0.154893081107,9.35370969696
9022648,-0.00907609388749,0.0121442107046,0.000110234667065,0.999885058651,-0.024086818265,-0.17620548941,-0.0272474025002,-0.225955936331,-0.168832041291,9.29905695465
9022728,-0.0104949378189,0.00973992076223,0.000102230342942,0.999897484632,-0.0284998629873,-0.183198884832,-0.0261393129138,-0.182260494171,-0.196349030683,9.35245656903
9022808,-0.0112653601335,0.00835204695573,9.40980705798e-05,0.999901658224,-0.0302963096977,-0.186543541962,-0.0229203187931,-0.15819801037,-0.21333806465,9.4666174546
9022888,-0.0125552165771,0.00961209552556,0.000120697031595,0.999874971978,-0.0237117566176,-0.187698956118,-0.0158806415832,-0.185659049142,-0.242445678145,9.65242986729
9022968,-0.0143034027278,0.0102752093602,0.000146993257195,0.999844893539,-0.0108215334789,-0.190094964857,-0.00697424458113,-0.199502050579,-0.277627338528,9.70142865158
9023048,-0.0146505936838,0.00986050241501,0.000144484747852,0.999844042699,-0.000958949288317,-0.1915325701,-0.00163040637991,-0.190809019654,-0.283413444132,9.66881809915
9023128,-0.0145314904759,0.00891619747828,0.000129584473886,0.999854649644,0.0062356714104,-0.189840992877,-0.000978243827944,-0.171227991138,-0.278984242017,9.59586107067
9023208,-0.0145074828586,0.00802992476955,0.000116510014868,0.999862510386,0.00927537364525,-0.186697596236,-0.00441815684992,-0.153254449712,-0.276805561079,9.53676396296
9023289,-0.0159486764225,0.00686791047894,0.000109550600143,0.999849218395,0.00556522418715,-0.181831727822,-0.012867455585,-0.130738736722,-0.30351051194,9.5113613453
9023368,-0.018605524854,0.0051728384986,9.62613264417e-05,0.999813516072,0.000784994143517,-0.176783756465,-0.0200654851334,-0.0987939561444,-0.355207087194,9.54065192559
9023448,-0.0190452634685,0.00433982649361,8.26689121817e-05,0.999809200303,-0.0016574538212,-0.175457733898,-0.0243843028625,-0.0834578104542,-0.3661137384,9.60634972713
9023528,-0.0198855853646,0.00364716325249,7.25408030047e-05,0.999795607328,0.00198535813751,-0.180621781217,-0.0244214531311,-0.0711436608819,-0.387741199583,9.74345183579
9023608,-0.019726708331,0.00328250092853,6.47658903614e-05,0.99980001899,0.0080022558659,-0.184571589732,-0.0227409830464,-0.0647128518026,-0.388746667992,9.84750033609
9023688,-0.0190579599992,0.000494664528653,9.42901044567e-06,0.999818258174,0.0175720553634,-0.183961644411,-0.0157730401352,-0.00961845082765,-0.370435755922,9.71336547998
9023768,-0.0173797398304,-0.000589003497805,-1.02382757076e-05,0.999848787374,0.0228882450004,-0.178913086542,-0.0094638240811,0.0112277612905,-0.33119762909,9.52394839077
9023848,-0.0156546576026,-3.97270533214e-05,-6.21989637438e-07,0.99987745755,0.0222467482295,-0.174606881636,-0.00567829444866,0.000751152623923,-0.295923164857,9.44812652348
9023928,-0.0155822563609,1.4193745328e-05,2.21197434185e-07,0.999878589172,0.0133480489377,-0.174151609,-0.0034069766692,-0.000267568923693,-0.293672679432,9.41987165505
9024008,-0.0155404405555,-0.000739817010752,-1.14984739804e-05,0.999878966298,0.00290054862508,-0.176006895726,-0.00204418600152,0.0139652484407,-0.293280068841,9.43260683458
9024088,-0.0156502237244,-0.00410146404468,-6.41972324401e-05,0.999869113619,-0.00592209193127,-0.180525588253,0.000476248644937,0.0775715770429,-0.295917544478,9.45054300944
9024169,-0.0141738534606,-0.00612655731834,-8.68472802142e-05,0.999880772708,-0.0103642961422,-0.185365254076,0.00369126967866,0.117650735532,-0.272121492263,9.59633768799
9024248,-0.012248222688,-0.00570982501322,-6.9941595138e-05,0.999908682854,-0.0113268584228,-0.188694743632,0.00562028229889,0.111291869542,-0.238690247653,9.74151475513
9024329,-0.00991636365482,-0.00470602639016,-4.66694805812e-05,0.99993975662,-0.0067961150537,-0.187712606935,0.00848045011688,0.0926324996549,-0.195168324617,9.83915548272
9024408,-0.00793182486037,-0.00433708071438,-3.44023704325e-05,0.999959136516,-0.00407766903222,-0.184143494487,0.0110479309306,0.0855070205449,-0.156365901997,9.85584139022
9024488,-0.0058132998709,-0.00390047527658,-2.26751880691e-05,0.999975495361,-0.00755488215688,-0.176468056219,0.0104599691115,0.0759644894266,-0.113212574645,9.73680546523
9024568,-0.00472971594523,-0.00381598892335,-1.8048876954e-05,0.999981533674,-0.0168779410765,-0.16973434295,0.00627598146691,0.0733514329137,-0.0909118807247,9.61031727206
9024648,-0.0053236603288,-0.00575129559441,-3.06188845109e-05,0.99996928968,-0.0241745366742,-0.164842734867,0.000785758449911,0.109372565071,-0.101234060808,9.5073698774
9024728,-0.00710830170892,-0.00812296505602,-5.77438504663e-05,0.999941741379,-0.0289781840942,-0.161907770016,-0.00378544554467,0.153969580302,-0.134721267784,9.47528954118
9024810,-0.00838327131336,-0.0102920087867,-8.6288304876e-05,0.999911890054,-0.0305833023618,-0.163126621536,-0.00695385800289,0.195092999402,-0.158883734791,9.47471611241
9024888,-0.00926386524399,-0.0121740176469,-0.000112791658534,0.999882973839,-0.0251610224005,-0.174500183985,-0.00757783529343,0.232935159993,-0.177211937652,9.5627180964
9024968,-0.00969830330068,-0.0126097700871,-0.000122308852697,0.999873452819,-0.0150966134403,-0.1830270817,-0.00667515148337,0.244148288378,-0.187730019037,9.67633200896
9025048,-0.0101702207375,-0.0127374563312,-0.00012955995525,0.99986714469,-0.00522675751102,-0.185163389899,-0.00655923125879,0.24728486292,-0.197392750191,9.70212298712
9025128,-0.0119095615522,-0.0130476508257,-0.000155416055422,0.999843936321,0.0045263665997,-0.182613964265,-0.0081924393699,0.251800429471,-0.229766027312,9.64337732254
9025208,-0.0133486992629,-0.0128733386267,-0.000171871885201,0.999828015131,0.0112296211891,-0.180232928762,-0.0104494344209,0.247327164421,-0.256372598565,9.59951079782
9025288,-0.0146269407877,-0.0122983099876,-0.000179919510817,0.999817369225,0.0139745037583,-0.175398786968,-0.0139320817589,0.235305818916,-0.279758566463,9.55930451336
9025368,-0.016426135748,-0.0150062321911,-0.000246555445168,0.999752436491,0.0126416028696,-0.166964331093,-0.0190015005919,0.286032691789,-0.312943760483,9.52081553272
9025448,-0.018706036649,-0.0176959046863,-0.000331130057651,0.999668359759,0.0126932424593,-0.161903657568,-0.0233202220761,0.337298369956,-0.356318053165,9.51759401812
9025529,-0.0193771778087,-0.0188701636462,-0.000365784361465,0.999634087107,0.0174068168892,-0.165678294436,-0.0242086947207,0.363508793702,-0.373005242299,9.61765410008
9025608,-0.0194938717787,-0.0185621956494,-0.000361980248724,0.999637585741,0.0215120317315,-0.17177428711,-0.0226133280002,0.362236216163,-0.380144513788,9.74305185458
9025694,-0.0192446521141,-0.02016418817,-0.000388203652693,0.999611373574,0.0226980904525,-0.177986023083,-0.0186762775377,0.393315551719,-0.375090690206,9.7378453315
9025769,-0.0182716180954,-0.0216552171005,-0.000395834807739,0.999598440805,0.0221326555008,-0.175753403807,-0.0129085267685,0.416033295875,-0.350750001282,9.59106931804
9025848,-0.0167382981406,-0.0220607382934,-0.000369400904084,0.999616434811,0.0205163243453,-0.169305551503,-0.00774511606107,0.41936887523,-0.31794965531,9.49127212183
9025929,-0.0144437673742,-0.0200327954403,-0.000289437331809,0.999694943929,0.0123097946072,-0.159051489199,-0.00464706963664,0.379711113956,-0.273609170628,9.46658856851
9026008,-0.0123511591718,-0.0179127028683,-0.000221295038258,0.999763239458,0.00185190596531,-0.15375043194,-0.00108548153614,0.339635885903,-0.234076190853,9.47212915063
9026088,-0.0117476009422,-0.0179437200056,-0.000210844164698,0.999769959705,-0.0125109383876,-0.154401008137,0.00190285144709,0.341208706835,-0.223285091953,9.49987435683
9026169,-0.0125466671064,-0.0209421783636,-0.000262832884537,0.99970192419,-0.019000194692,-0.157771184286,0.00539861148287,0.40248628123,-0.240991869381,9.59936085799
9026252,-0.0135679410905,-0.022926013503,-0.000311169252344,0.999645043029,-0.0186368478601,-0.159793289975,0.00834744762727,0.446914271179,-0.264305204636,9.73470953115
9026332,-0.0124647161905,-0.0224622528852,-0.000280078048281,0.999669945333,-0.011182108716,-0.159303793143,0.00969105925244,0.444840645227,-0.246689743876,9.89061782685
9026408,-0.0105869262468,-0.022921817026,-0.000242748981139,0.99968117336,-0.00287805467647,-0.156881644736,0.00964584610462,0.456046318289,-0.210502509655,9.93723645172
9026488,-0.0079139112381,-0.0223260175853,-0.000176735712718,0.999719404489,0.00253006780874,-0.148191624648,0.00578750766277,0.440982487018,-0.156229026545,9.86704535858
9026568,-0.00650776353164,-0.0224432756794,-0.000146095425824,0.999726926239,-0.000184719560605,-0.140423472225,0.000492674167431,0.437450852074,-0.126777398837,9.73730292194
9026648,-0.00571894844129,-0.0220258405267,-0.000125997275041,0.99974103652,-0.00692187271976,-0.136188270834,-0.00438698617562,0.425036803969,-0.110303523043,9.640782687
9026728,-0.00617702055459,-0.0240094190174,-0.000148352272645,0.999692637868,-0.0207550360289,-0.131944389753,-0.00944323268877,0.458529223495,-0.117896869685,9.53977491616
9026808,-0.00662086391124,-0.0260416537626,-0.000172480525173,0.99963891815,-0.0307576942602,-0.128546680981,-0.0124769805967,0.497060027993,-0.126283600327,9.53280037084
9026889,-0.00773987208921,-0.0279954360593,-0.000216772558661,0.999578062459,-0.0320766985229,-0.129062196087,-0.0108917088497,0.534304300487,-0.147596210001,9.53005216464
9026968,-0.0086299880097,-0.0282489408662,-0.000243894447871,0.999563635374,-0.0230772296669,-0.133628405765,-0.00653502530981,0.543482754853,-0.165890439623,9.60621479488
9027050,-0.0085342625546,-0.0287548946351,-0.000245512293756,0.999550029824,-0.0138463378001,-0.136793821634,-0.00136687481712,0.556890692951,-0.165135389262,9.66962946531
9027128,-0.00746080821335,-0.0296194567926,-0.000221088250989,0.999533378752,-0.00575366231131,-0.136138930786,0.000882635355579,0.568766178466,-0.143134544104,9.58724992406
9027208,-0.00725950663643,-0.0300921785429,-0.000218559116162,0.999520741449,-0.000472366956552,-0.134043236031,0.000529581213347,0.569905965624,-0.137356062156,9.45522224203
9027288,-0.00815805018349,-0.0287890965584,-0.000234968115722,0.999552189196,-0.000283420173931,-0.128954608625,-0.00564191213246,0.539704636504,-0.152803166102,9.36020390186
9027370,-0.00823804785207,-0.0262799266801,-0.000216577451198,0.999620654606,-0.00996092351799,-0.128029882489,-0.014027398816,0.491416898113,-0.153931142825,9.33838766216
9027448,-0.00920341011265,-0.0256764669157,-0.000236399016749,0.999627910977,-0.0204500162005,-0.130454877238,-0.0194843808876,0.481119028028,-0.172325021144,9.35761964075
9027532,-0.0124238586571,-0.0285292744393,-0.000354615419159,0.999515683961,-0.0271691618715,-0.136166774702,-0.0193530496389,0.541977952461,-0.235794364493,9.4833622471
9027609,-0.0154284358367,-0.0290258204395,-0.000448065193725,0.999459486099,-0.0269437486594,-0.140870983364,-0.0167201105209,0.562691576164,-0.298775667768,9.67492659142
9027690,-0.0165997998063,-0.0287782554921,-0.000477977188991,0.99944786267,-0.0161662491957,-0.148801789299,-0.0100320663125,0.57248612856,-0.329860685085,9.92729237331
9027768,-0.0171868405465,-0.0291651016843,-0.000501543479738,0.999426714577,0.00477371257231,-0.157391483413,-0.00261371929582,0.580278221325,-0.34156851066,9.92811655802
9027848,-0.0176416254977,-0.0292947930796,-0.000517110283616,0.999414989254,0.0220202803092,-0.160842539636,0.0018372889142,0.578728552668,-0.348114365673,9.85726385937
9027928,-0.0174534676095,-0.0297409258561,-0.000519391264142,0.999405115071,0.0336452911357,-0.157804892632,0.00110237334852,0.57444686915,-0.336718988056,9.63734189717
9028008,-0.0170223876494,-0.0294576840927,-0.000501730645981,0.999420948066,0.0359377069555,-0.154279544184,-0.00487254678989,0.559906850738,-0.323177996838,9.48431974523
9028088,-0.0168815862042,-0.0283688318823,-0.000479172102891,0.999454847314,0.0215626241733,-0.150035884808,-0.0161199199793,0.53322632724,-0.316968763435,9.38005660544
9028168,-0.0170482258784,-0.0289968464067,-0.00049462475088,0.999433987935,0.00186963290597,-0.148341069305,-0.026699554446,0.546427273395,-0.320904668705,9.40345056116
9028248,-0.0183671844057,-0.0303813421175,-0.000558371791364,0.999369455611,-0.0129259922847,-0.149452630311,-0.0326216450646,0.577811017357,-0.348884169631,9.48811588357
9028330,-0.0189475048711,-0.032625506655,-0.000618612497802,0.99928783926,-0.0188235369688,-0.153950777467,-0.0293638584524,0.631357187807,-0.366150710519,9.65168197521
9028410,-0.0191939303478,-0.0339648924995,-0.000652416604772,0.999238486783,-0.0168280929803,-0.157501045884,-0.0231522858705,0.666836772401,-0.376271214886,9.79052305842
9028490,-0.0182533224677,-0.0346788253575,-0.000633490555069,0.999231601772,-0.00371150486625,-0.160908277118,-0.0138913715223,0.682857279505,-0.358880341236,9.81947933066
9028568,-0.015390698389,-0.0352792237871,-0.000543374626172,0.999258829091,0.0101181088627,-0.156992954999,-0.00833482291336,0.683371617459,-0.297688741851,9.66135811231
9028649,-0.0127855052053,-0.0340357413797,-0.000435452097312,0.999338736138,0.0175644969771,-0.152089621358,-0.00500089374802,0.649682556657,-0.243735530267,9.52362917159
9028730,-0.0103800149578,-0.0326684454091,-0.000339298363167,0.999412283715,0.0135185286165,-0.15383021185,-0.00470329649466,0.618455792539,-0.196280132857,9.44793499196
9028810,-0.00958175330076,-0.0309849893729,-0.000297046807147,0.999473877698,0.00470559667819,-0.159557156821,-0.00707887851142,0.585833364439,-0.180975003543,9.4377132486
9028892,-0.0089352350879,-0.034705006494,-0.000310296724016,0.999357607573,-0.0142042444516,-0.166824534357,-0.0119097482132,0.662506814318,-0.170355404958,9.52567232782
9028971,-0.0110301283621,-0.0383722357844,-0.000423588478478,0.999202546215,-0.0302327398055,-0.169907890694,-0.0148082700342,0.741550867155,-0.212825359674,9.63830281686
9029053,-0.011529389612,-0.0398813719857,-0.000460204665692,0.999137797081,-0.0368700065876,-0.170480834312,-0.0169730731883,0.778442811553,-0.224660383041,9.73293558904
9029130,-0.0123185382933,-0.0403826374638,-0.000497899079178,0.999108226521,-0.028933044936,-0.166993389929,-0.0191233352037,0.799620297527,-0.243492985195,9.87255462979
9029212,-0.0128173560366,-0.0406601912271,-0.000521630475123,0.999090682639,-0.0173598269616,-0.164049543177,-0.0208391824744,0.813523889942,-0.255989647318,9.97500082719
9029290,-0.0121955143736,-0.0426670339339,-0.000520859589071,0.999014775842,-0.0031791651321,-0.162708925187,-0.0227200709597,0.843892700665,-0.240742728821,9.85857936228
9029371,-0.0112287947536,-0.046038765227,-0.000517541350774,0.998876407978,0.00660630214998,-0.160627484209,-0.0242742941124,0.888689625526,-0.216271687097,9.6177804848
9029450,-0.00993776511871,-0.0485466496307,-0.000483038681795,0.998771360376,0.009497752089,-0.158101549437,-0.0260582081269,0.919159082933,-0.187702692434,9.43092378893
9029531,-0.00932801214792,-0.049010631285,-0.000457741838975,0.998754592822,0.00101606057732,-0.154457538267,-0.0279799366585,0.918526564262,-0.174392018292,9.33485092253
9029608,-0.00864741472884,-0.0490104197812,-0.000424339291501,0.998760742574,-0.0104583052516,-0.152696821626,-0.0274302135317,0.919583574055,-0.161856630653,9.34592079033
9029688,-0.010451684836,-0.0498227714326,-0.000521408040468,0.998703250152,-0.0258567259782,-0.156322982318,-0.0211407187951,0.935540670556,-0.19575508679,9.35112619002
9029768,-0.0132146422416,-0.0526198582407,-0.000696378412509,0.998526934442,-0.032115947984,-0.161478509163,-0.0126844312771,0.996829684316,-0.249612983715,9.4284696813
9029850,-0.0146738939443,-0.0533480823161,-0.000784025347742,0.998467848383,-0.0311888905113,-0.163720445148,-0.00761065876623,1.0228291851,-0.280491200873,9.54023748139
9029930,-0.0153171590919,-0.0541754779283,-0.000831132925755,0.998413597387,-0.0187133343068,-0.159531635939,-0.00626915550559,1.06261032234,-0.299496971501,9.75813286603
9030010,-0.0161624429287,-0.0543913978763,-0.000880516826101,0.9983884895,-0.00569402978507,-0.153612829922,-0.00972115416382,1.08193002153,-0.320477240518,9.89509502113
9030090,-0.0169708448877,-0.0521732783786,-0.000886760571153,0.998493441692,0.0114827342801,-0.143250505329,-0.0190290844036,1.03510332053,-0.335699023754,9.87216686131
9030168,-0.0164741143289,-0.051285729042,-0.000846115712933,0.998547776344,0.0209374125963,-0.13618173045,-0.025039532609,0.999585274791,-0.320171816596,9.70015323568
9030248,-0.015649201815,-0.0518322699627,-0.000812325454077,0.99853285294,0.0223533189714,-0.130663395338,-0.0282201114707,0.995991539631,-0.299842164665,9.5631868169
9030329,-0.0145130361461,-0.0545831283515,-0.000793433681063,0.998403437666,0.0134119913829,-0.125649634025,-0.0292770786648,1.03645208809,-0.274715684541,9.44676988189
9030408,-0.0139294321749,-0.0560098113123,-0.000781487810596,0.99833274074,0.00549305446094,-0.122641377237,-0.0282084987354,1.06192551799,-0.263231098957,9.43054983807
9030488,-0.0146788940895,-0.0566716985826,-0.000833307311866,0.998284605835,-0.0026638281839,-0.120410733103,-0.0228847601017,1.07649131543,-0.277888162548,9.44667518971
9030568,-0.0153001584192,-0.0557360332362,-0.000854198411603,0.998327937151,-0.00840933789374,-0.119498036684,-0.0179877566757,1.06703486128,-0.291949644355,9.52195152618
9030648,-0.0161914562483,-0.0550489711691,-0.000892794362579,0.998351967212,-0.00972819341232,-0.12107886914,-0.0137724844356,1.06543113161,-0.31235754174,9.6267329494
9030729,-0.0168516164441,-0.0551239807632,-0.000930475683658,0.998336868989,-0.00285708561716,-0.119898918306,-0.0112433210916,1.07787642311,-0.328433002827,9.72527540807
9030808,-0.0164931810149,-0.0541076987392,-0.000893839567923,0.998398484057,0.00552247967456,-0.116636807437,-0.011428583331,1.06690824522,-0.324191909851,9.80906116037
9030897,-0.0150620772253,-0.0531879196648,-0.000802347665488,0.9984705981,0.0156584995871,-0.112125400547,-0.0162223313508,1.04596212853,-0.295311035803,9.78535178045
9030968,-0.0129406351067,-0.0543789088623,-0.000704799736316,0.998436266114,0.0204630413503,-0.107290106106,-0.0199499602856,1.05063271047,-0.249252091452,9.61334826309
9031053,-0.0123561829696,-0.0555147933984,-0.000687063183312,0.998381169895,0.0224943862853,-0.103963239379,-0.021760847585,1.05606868146,-0.234305993641,9.46393806064
9031128,-0.0110047926901,-0.0565300342237,-0.000623135679582,0.998340053023,0.0194562926316,-0.102818499467,-0.0232730700261,1.06507634803,-0.206663562005,9.37237657784
9031209,-0.0111953309701,-0.0565925453902,-0.000634629323777,0.998334385673,0.0138022258863,-0.103408725703,-0.0246060935522,1.06114356151,-0.209231716305,9.32725591496
9031288,-0.00992192145285,-0.0572122140034,-0.000568614588722,0.998312573657,0.000618914425455,-0.104614241568,-0.0241288374835,1.07674040204,-0.186112331785,9.36147507974
9031369,-0.00971827405437,-0.0567069446553,-0.000552008077637,0.998343414294,-0.0102709028813,-0.10618893121,-0.0229911037193,1.07700054005,-0.183972289208,9.44808654443
9031448,-0.0109772327565,-0.0542322644206,-0.000596233721231,0.998467829408,-0.0151020330195,-0.107985125118,-0.0223084634608,1.04172243829,-0.210221582753,9.55895078408
9031528,-0.0109312072118,-0.0532078025745,-0.000582485578778,0.998523459496,-0.011189670119,-0.106508701094,-0.0244530196745,1.04234281234,-0.213521310248,9.75044665453
9031608,-0.0110749186432,-0.0517134792471,-0.000573525288756,0.998600387197,-0.0067138020714,-0.10562284668,-0.0261654434642,1.03146228897,-0.220289550065,9.92974820146
9031688,-0.00935459364415,-0.0536597518911,-0.000502711533299,0.998515332825,-0.00147414087406,-0.105091334031,-0.0246387573692,1.07305742831,-0.186522107724,9.95329265134
9031768,-0.0082610552236,-0.0541388750515,-0.000447916495606,0.998499141985,0.00166965584433,-0.104772426442,-0.0211686053435,1.07550901631,-0.163628020494,9.88745298583
9031848,-0.00689610661935,-0.0545020308088,-0.000376420294791,0.99848977494,0.0010017935066,-0.104581081888,-0.0127011632061,1.0686002633,-0.134808097697,9.75840604442
9031928,-0.00659100476363,-0.0560133704975,-0.000369772998208,0.998408195204,-0.0100411754326,-0.108723175771,-0.00549224761633,1.08552398611,-0.127332370825,9.64314949335
9032008,-0.00619221069575,-0.0577606419531,-0.000358271115962,0.998311192169,-0.0222009275951,-0.113762572469,0.00138724210628,1.11387415241,-0.119016212046,9.59290975583
9032090,-0.00654262644736,-0.0610826839106,-0.00040039745959,0.998111185914,-0.0367335099375,-0.119340350857,0.0110489067389,1.17397988207,-0.125279264581,9.55486504783
9032168,-0.00809416519454,-0.063765628959,-0.000517199132151,0.997931942348,-0.0467301295273,-0.120984257644,0.0181229757028,1.21387404252,-0.153457953036,9.45853623207
9032249,-0.00948746891134,-0.0649695602666,-0.000617729773278,0.997841952707,-0.0505996509739,-0.11430818061,0.0189618965895,1.23254329514,-0.179223712251,9.42324443822
9032329,-0.0107433778128,-0.0638780571573,-0.000687710538531,0.997899644604,-0.0465360129199,-0.108599774143,0.0130798981995,1.21238080497,-0.203062873591,9.4288844205
9032410,-0.0113462939883,-0.0616903659632,-0.000701338247539,0.998030594964,-0.0415436897187,-0.108580250755,0.00784793891971,1.1746653531,-0.215211588901,9.46315361128
9032493,-0.012893266206,-0.0615147671149,-0.000794697721018,0.998022577685,-0.0338657051219,-0.116230957828,-0.00337934781595,1.18268186323,-0.24692167502,9.55434407473
9032568,-0.0146773743153,-0.0623146750449,-0.000916496275222,0.997948203061,-0.0262790839336,-0.11997000195,-0.0130955502876,1.21023668507,-0.283904239143,9.64880210035
9032648,-0.0161908595503,-0.0620847688658,-0.00100728174264,0.99793903768,-0.0208757310977,-0.120084978115,-0.0189252717706,1.21815045221,-0.316388844755,9.74713602462
9032728,-0.0177092360071,-0.0624343246133,-0.00110800059496,0.997891331962,-0.0172080293347,-0.115045683077,-0.0215717245374,1.22553233431,-0.346174675261,9.74939379983
9032808,-0.0184212135383,-0.0626140450074,-0.00115589206396,0.997867127514,-0.0162844784613,-0.109042275623,-0.0210311458902,1.22708842158,-0.359497190411,9.7327919525
9032888,-0.019112883292,-0.0649510663254,-0.00124425819591,0.997704619864,-0.0195615584904,-0.103311780844,-0.01432144778,1.26513219968,-0.370603161659,9.66848246642
9032968,-0.0198458557234,-0.0665814210036,-0.00132456711229,0.997582729356,-0.0223791866308,-0.1007248641,-0.00859286866799,1.28628252537,-0.381576307396,9.58560404406
9033050,-0.0201721589346,-0.0685357092947,-0.00138605633753,0.997443742475,-0.0223670032692,-0.100875474299,0.00037824959821,1.31238025009,-0.384329472181,9.49709092375
9033128,-0.0205620233121,-0.0685877508161,-0.00141393367914,0.997432165326,-0.0181027926376,-0.103519980787,0.00788937086524,1.3076881708,-0.390051513875,9.45547521953
9033208,-0.0209893227528,-0.0675161076131,-0.00142067421839,0.997496368529,-0.0142671960743,-0.105958064803,0.0115446635025,1.28978945278,-0.39899140271,9.47575620838
9033288,-0.0205533963349,-0.0667684771002,-0.00137568137034,0.997555830952,-0.00856031764455,-0.105292464905,0.0103323185932,1.28240210428,-0.392863168042,9.52886565008
9033368,-0.0205837513503,-0.0664909572324,-0.0013719620586,0.9975737464,-0.00513619058673,-0.101913274536,0.00619939115593,1.28108215734,-0.39469289106,9.5592947941
9033452,-0.0224619985415,-0.067018067658,-0.00150913597463,0.997497749239,0.00245225644697,-0.0952031696386,0.000314114201863,1.29944380246,-0.433379690935,9.6170566079
9033528,-0.0220771587903,-0.0662332222856,-0.00146581968697,0.997558825683,0.0125392954662,-0.0941569371303,-0.00704826252374,1.30064456273,-0.431452653428,9.74197509878
9033609,-0.0212450794088,-0.0659956971361,-0.00140546717634,0.997592722118,0.0202942791236,-0.0931035075639,-0.012317068682,1.30567458188,-0.418325422623,9.8162079328
9033691,-0.0202224902885,-0.0680926125857,-0.00138049058883,0.997473077954,0.0228188190107,-0.0882145492095,-0.0129242120082,1.34197199644,-0.396562714511,9.77527463395
9033768,-0.018962417653,-0.0706242174127,-0.00134280215208,0.997321835474,0.02348216282,-0.0852811741968,-0.0103086675737,1.3812281173,-0.368900459517,9.69660569712
9033848,-0.0175190086015,-0.071345814231,-0.00125329560241,0.997296991061,0.0226030989213,-0.0826697690663,-0.00363106017545,1.37772731105,-0.336501375564,9.57398698272
9033928,-0.0161067157799,-0.0723854225167,-0.0011691111751,0.997245986451,0.0195215202132,-0.0730148148202,0.0037810247552,1.38616131461,-0.306766858053,9.49323314911
9034008,-0.0146928283069,-0.072651593414,-0.00107040252015,0.997248575336,0.0168211928655,-0.0655190820267,0.00950534589797,1.38763041425,-0.27910992074,9.4689622857
9034088,-0.0133907536719,-0.0720744303832,-0.000967735222514,0.997308892816,0.0156266865183,-0.0661299230881,0.0125142485222,1.37773796657,-0.254614892874,9.4788206246
9034168,-0.0119374179159,-0.0714068930258,-0.000854656999165,0.997375467536,0.01490998271,-0.0677734979094,0.0121911397894,1.37060539713,-0.227946867853,9.5201698125
9034248,-0.0107356751271,-0.0714500668978,-0.000769074987557,0.997386104647,0.0127772001791,-0.0679082626792,0.00731468387363,1.37302962011,-0.205242288192,9.53181121611
9034328,-0.0105044998752,-0.0715377856889,-0.000753440950514,0.997382290312,0.0123489107836,-0.0696918817869,0.00140897989395,1.37400531357,-0.200717506704,9.52682504998
9034408,-0.0113767513836,-0.0714062845282,-0.000814503837848,0.997382097614,0.0133690073306,-0.0699106731287,-0.00468858286264,1.37004174649,-0.217156251093,9.51665074532
9034488,-0.0110119074903,-0.0706149499967,-0.000779599075261,0.997442559226,0.0161095155661,-0.0645079771347,-0.0113269509468,1.35976274077,-0.210978346603,9.55292353191
9034568,-0.0103618638636,-0.0697146673906,-0.000724174993206,0.9975128934,0.0181795105689,-0.0599892893539,-0.0153099717973,1.35120113567,-0.199849578763,9.61754341358
9034648,-0.00950947745817,-0.0678469605039,-0.000646708771307,0.997650210022,0.0168673672018,-0.0572780766854,-0.0164227141233,1.32284041651,-0.184553192082,9.67906025835
9034728,-0.00984453540083,-0.0674042607393,-0.000665108707857,0.997676955927,0.0126745606899,-0.0560770391458,-0.0132591489656,1.33144194278,-0.19357129269,9.80671060814
9034808,-0.0108448874544,-0.06814596059,-0.000740801237691,0.997616142454,0.00973318672123,-0.0566334868064,-0.00795548937939,1.35599589198,-0.214783884013,9.87683647352
9034888,-0.0109267009937,-0.07053446906,-0.000772680008331,0.997449196122,0.00583991203274,-0.0569673554028,-0.00136777313594,1.39993752176,-0.215779850671,9.84660710262
9034974,-0.0116612221,-0.0727763005921,-0.000850975469964,0.997279751029,0.00350394721964,-0.0558906063763,0.00343623673306,1.43276684411,-0.228348438967,9.76191067393
9035050,-0.0118284578252,-0.0750035869344,-0.000889745718062,0.997112710723,0.000399608085938,-0.0539674867759,0.00844709296177,1.46156240383,-0.229185827296,9.65746269952
9035130,-0.0144874162511,-0.0771743508993,-0.0011215205153,0.996911719525,0.000239764851563,-0.0528136150157,0.0101765365146,1.54156782316,-0.28762794047,9.89287202157
9035208,-0.0157912324436,-0.079722017956,-0.00126308816343,0.996691246796,0.00482644958702,-0.0491414615294,0.00823437221607,1.62763888115,-0.320299006713,10.1042677234
9035288,-0.0181967984302,-0.0850205678589,-0.00155298514054,0.996211808706,0.0271602032555,-0.0294848769176,-0.0035731778996,1.71615222151,-0.364561923559,9.97444672659
9035368,-0.0177181848563,-0.087942848963,-0.00156449773867,0.995966703052,0.0465201163171,-0.0096028149828,-0.0127861582763,1.75441617544,-0.35065766561,9.85082487678
9035448,-0.0196187823778,-0.0900881352711,-0.0017749827896,0.995738962127,0.0653727951989,0.0108402234073,-0.0166111862565,1.77258614447,-0.382777118897,9.70841701957
9035528,-0.0215116457791,-0.0923479550675,-0.00199555164281,0.995492401811,0.0813669932041,0.0303427774863,-0.0235887937207,1.80264173917,-0.416174580665,9.62345114558
9035608,-0.0234291234673,-0.0943052370772,-0.0022200004667,0.995265125497,0.0922405821916,0.0475782807326,-0.0290524283836,1.8297730623,-0.45033884752,9.55810641123
9035690,-0.0256668101818,-0.0967052119716,-0.00249464005344,0.994978941287,0.100893185891,0.0715416646473,-0.0284993986282,1.8628112678,-0.489512180582,9.47987408355
9035768,-0.0263925663714,-0.0981925348656,-0.00260506287905,0.994813988736,0.106936128234,0.0923050459179,-0.0268905105905,1.88431013226,-0.501284592285,9.4389201911
9035848,-0.0256155370976,-0.0968269833955,-0.00249281798756,0.994968424325,0.115670174377,0.119662226832,-0.0276279380138,1.85674744288,-0.486321384033,9.43685335123
9035928,-0.0258762206189,-0.0952441550086,-0.00247665851995,0.995114485025,0.126018882801,0.153104137838,-0.0314759149594,1.82392925797,-0.490750988379,9.42819122216
9036008,-0.0266044440091,-0.0943544550785,-0.00252240601,0.995179922343,0.134356558162,0.179554635364,-0.0346360812498,1.80615370834,-0.504422078623,9.42586698672
9036088,-0.0230303810536,-0.0917605812773,-0.00212280730006,0.995512476547,0.140636233564,0.203087354986,-0.036532181024,1.78160200894,-0.443192884625,9.57195526771
9036169,-0.0186860474075,-0.0903362470758,-0.00169525841323,0.995734563122,0.14014713819,0.22316664762,-0.037244150827,1.7668709893,-0.362402057679,9.65074969017
9036249,-0.0122626064322,-0.0883395575444,-0.00108760806104,0.996014341345,0.125805908937,0.247984925044,-0.0334144320942,1.72140109212,-0.237073688221,9.62500319301
9036328,-0.00690404839704,-0.0840239538399,-0.000582178203661,0.996439647126,0.108687370156,0.269686932481,-0.0281367704243,1.63186991064,-0.133146246624,9.60644283255
9036408,-0.00345975345807,-0.081191087613,-0.000281833307194,0.996692509237,0.0954364164576,0.286965037559,-0.0253958634838,1.57599642026,-0.0667196388435,9.60895356574
9036489,0.00013418310285,-0.0773951254431,1.04163620628e-05,0.997000489691,0.0840803237467,0.304142941588,-0.0233256292581,1.49985553648,0.00258500624469,9.60231972001
9036568,0.00366515137253,-0.0750751774548,0.000275942502666,0.997171102796,0.0759895979357,0.316152444252,-0.0208064185382,1.45225564489,0.0705040115593,9.5897202866
9036648,0.00862094518862,-0.0715979773809,0.000618853657489,0.997396122892,0.0664525717731,0.32335814585,-0.0146123014303,1.37844529855,0.165124952102,9.55031774447
9036728,0.00940659325005,-0.0661394687379,0.000623540160425,0.997765853232,0.0551963852765,0.328958636994,-0.00876738085815,1.27119158709,0.179998987374,9.54463273164
9036808,0.011193137041,-0.0629744198391,0.000706327784668,0.997952121712,0.0467399131327,0.334873072048,-0.00526042851489,1.20516341905,0.213344265471,9.50866058137
9036888,0.0116368223611,-0.0580948051442,0.000677228807625,0.998243016175,0.0429431000308,0.339698803266,-0.00315625710893,1.11383176237,0.222338104693,9.53448248407
9036968,0.0112832619578,-0.0552841976314,0.000624781543262,0.998406708281,0.0406650121696,0.341317171812,0.00108607616487,1.06166639018,0.216002820091,9.55476402902
9037050,0.0113435445146,-0.0519027616878,0.000589594064292,0.998587542335,0.0324871184696,0.33973405257,0.00363147612916,0.997806024296,0.217468892982,9.57028483831
9037128,0.0112281464917,-0.0469904100326,0.000528232133276,0.998832093528,0.0194922710817,0.337932800903,0.00388164592334,0.905859687576,0.215954335057,9.60377876065
9037208,0.0108040879954,-0.0414839560161,0.000448608738153,0.999080653314,0.00956691234173,0.337277739964,0.00445743786132,0.802329012008,0.208581255819,9.64254988701
9037288,0.0110893630656,-0.0338753743804,0.000375895218203,0.999364469921,-0.00575348425444,0.337310393462,0.00267446271679,0.656652968728,0.214691895581,9.67251632747
9037370,0.0116765352601,-0.0283377166509,0.000331041887367,0.999530150996,-0.0196283128882,0.334775845192,-0.00435498323039,0.549614889147,0.226259144917,9.68259532627
9037450,0.011691455529,-0.0226047080616,0.000264367572699,0.999676081114,-0.0343385609904,0.323464244816,-0.0200662824582,0.437268588029,0.226016889538,9.66134882662
9037530,0.00989052925911,-0.0206904671742,0.00020469350834,0.999736985462,-0.046144540282,0.305183652931,-0.0367297930397,0.398591227281,0.190437351741,9.62370122957
9037610,0.00820323826463,-0.0203334207914,0.000166840006056,0.999759586623,-0.0532281278569,0.288681327001,-0.0488563496959,0.390228861124,0.157358040927,9.58818398237
9037688,0.00748155951143,-0.0199836481951,0.000149542903708,0.999772302932,-0.0579039704633,0.269414750091,-0.0578350439355,0.38281723977,0.143256538423,9.57118319704
9037772,0.00685803491431,-0.0193981252287,0.000133061187975,0.999788308788,-0.0615608561501,0.253172213269,-0.0623708803563,0.372624182973,0.131683174763,9.59809285157
9037848,0.0055484204083,-0.018154068986,0.000100744560915,0.999819801095,-0.0650320577466,0.235764270069,-0.063389621963,0.349509517108,0.106782644116,9.62070298878
9037928,0.00365276363956,-0.0196508990488,7.1794432104e-05,0.99980022721,-0.0705202991961,0.215528632736,-0.0631494868041,0.380891128966,0.0707733511178,9.68550498662
9038008,0.00114988200004,-0.0204187863207,2.34841064756e-05,0.999790853321,-0.0763673844346,0.197001899414,-0.0604512653399,0.397086474255,0.0223527167254,9.71744300052
9038088,-0.0025738285495,-0.0226390341881,-5.82841237046e-05,0.999740389371,-0.0837068461309,0.171412397331,-0.0524469815395,0.44032250467,-0.0500347139589,9.71721277541
9038168,-0.00723235317259,-0.0251127092086,-0.000181686037416,0.999658447618,-0.0864077629028,0.148396274975,-0.0459416510134,0.487811937861,-0.140393524909,9.70199116988
9038248,-0.0124821505882,-0.0267611951935,-0.000334183016825,0.999563866229,-0.0807915819211,0.124370040086,-0.0403356924519,0.520854580929,-0.242732264847,9.7172790635
9038328,-0.0164953316533,-0.0272939026884,-0.00045045114732,0.999491242585,-0.0744420429018,0.1061230886,-0.0335665968233,0.53110336013,-0.320655500266,9.71184716955
9038410,-0.0204485560738,-0.0272318658085,-0.000557175598516,0.999419817491,-0.0702066294288,0.0943235375853,-0.0286537593232,0.529112342006,-0.396858121937,9.69398340305
9038488,-0.0240152629943,-0.026892395268,-0.000646248256509,0.99934961279,-0.0642598608533,0.0838382864848,-0.0278345071305,0.519059184989,-0.462930409051,9.62628314363
9038572,-0.0274787904452,-0.0266987833399,-0.00073418953015,0.999265506264,-0.0577119692778,0.0758443755786,-0.0294714061222,0.512548450446,-0.526755218087,9.57034009736
9038648,-0.0295336058138,-0.0297252570345,-0.000878666094214,0.999121315541,-0.0465465032876,0.0710480290349,-0.032156305763,0.568018210893,-0.563374162346,9.52097253864
9038728,-0.0305429323047,-0.0329594534379,-0.00100769675016,0.998989383458,-0.0334618727716,0.0681702211086,-0.0307874151173,0.632664108909,-0.585106108736,9.55958675072
9038808,-0.0306233372706,-0.0351384461613,-0.00107722788824,0.998912578956,-0.0226312640317,0.0660178462914,-0.0274119403611,0.67432468971,-0.586413688435,9.55498253872
9038888,-0.0300018723564,-0.0365733894206,-0.00109850058411,0.998879906765,-0.00974754786587,0.0655778015241,-0.0181499244625,0.702194080184,-0.574748387621,9.55892377616
9038968,-0.028772567225,-0.0374857472391,-0.00107976807001,0.998882271457,0.00138820232533,0.066590844848,-0.00876150437018,0.721309916128,-0.552426316508,9.58092097224
9039050,-0.0254632781298,-0.0374401442701,-0.000954327998094,0.998973946768,0.0131779331776,0.0689014310882,0.00325689860713,0.720808409393,-0.489233679309,9.59028856723
9039128,-0.021345019662,-0.0367886311424,-0.000785965530886,0.99909477479,0.0223802219963,0.0724162331397,0.0117450105779,0.710212438214,-0.411334929265,9.62200592232
9039208,-0.0180353144858,-0.0359781555973,-0.000649403620595,0.999189610648,0.0283272853489,0.0745251143705,0.0164121876989,0.696911670692,-0.348793948282,9.65851400749
9039288,-0.0145492451226,-0.035060388604,-0.000510470158157,0.999279154209,0.0344496637293,0.0753647530476,0.0166583536027,0.677199622044,-0.280623578442,9.63468960689
9039370,-0.0111284793928,-0.03400544535,-0.000378671392704,0.999359616575,0.0381230907575,0.0771456064382,0.0142519127763,0.655795586215,-0.21434281894,9.62278916819
9039448,-0.00728099593163,-0.0335473070939,-0.000244401862041,0.999410579068,0.0386243867286,0.0799168787184,0.00855114766576,0.648459828536,-0.140576699665,9.64725236688
9039528,-0.00522623694908,-0.0326660108756,-0.00017081380886,0.999452644703,0.0393508543727,0.0803025719022,0.00342792835361,0.631129684963,-0.100866011254,9.64421319381
9039608,-0.00227380368386,-0.0312282573848,-7.1041759156e-05,0.999509690153,0.0419151852665,0.0779798474436,0.000353996766316,0.601577985538,-0.0437601951313,9.61772941287
9039688,0.00119914608679,-0.0304267443778,3.65030386634e-05,0.999536279453,0.0387711931267,0.0782889730144,0.000212398059789,0.585762327212,0.0230644371204,9.61237363161
9039768,0.00362563021133,-0.0298207668027,0.000108167891308,0.999548680642,0.0326278972282,0.0789001384183,0.000127438835874,0.573160470058,0.0696235609539,9.59694973438
9039848,0.00408208809992,-0.0288747001366,0.000117919221247,0.99957469673,0.024259329013,0.0784154575377,0.00177922354737,0.55506486846,0.0784054219727,9.59918756402
9039928,0.00447302849625,-0.0274033951834,0.000122623446107,0.999614441128,0.018386807961,0.0772732688864,0.0036216744972,0.527687516047,0.0860687402442,9.61681083309
9040008,0.00512992842039,-0.0265768857154,0.000136387493726,0.999633600065,0.0110320847766,0.0757365755727,0.00557852519001,0.511021684433,0.0985675966856,9.60320335776
9040090,0.00598409771416,-0.0275423739652,0.0001648817627,0.999602711593,0.000659590005474,0.075240249646,0.00334711511401,0.530470865884,0.115164876859,9.61826262867
9040168,0.0050109905861,-0.0284996640557,0.000142871378298,0.999581231671,-0.00769235716449,0.0745167640285,0.0020082690684,0.550041240234,0.0966322452072,9.63759325836
9040248,0.00234590987019,-0.0272064244951,6.38476296851e-05,0.999627082014,-0.0139805956509,0.0728056024736,0.00120496144104,0.525631019775,0.0452900783255,9.64919163617
9040328,-0.000142261049018,-0.0261109515582,-3.7158383086e-06,0.999659040852,-0.0186049188656,0.0709275254177,0.000722976864626,0.505717643847,-0.00275347375666,9.6741071753
9040408,-0.00307735712646,-0.0255847633708,-7.87596086436e-05,0.999667916637,-0.0239336531632,0.0672465388154,-0.00169466418853,0.493769618291,-0.0593523442638,9.63997536475
9040490,-0.00557703875183,-0.0253846717958,-0.000141619138605,0.999662190453,-0.0262795136189,0.0646122567926,-0.00101679851312,0.490431525613,-0.107676876529,9.64990263951
9040568,-0.00767612889585,-0.0249128788006,-0.000191299484513,0.999660136706,-0.0272613398308,0.0626059975174,-0.000610079107872,0.481964325524,-0.148403184023,9.66256276901
9040648,-0.0102756449495,-0.0235274183447,-0.000241839119203,0.999670352277,-0.0291275057423,0.0596994817065,-0.000366047464723,0.454139089699,-0.198217506117,9.64071016629
9040728,-0.0131867128023,-0.0235891672956,-0.000311177242514,0.999634715764,-0.0293958251663,0.0575298821585,-0.000219628478834,0.454203359825,-0.253724057137,9.61514875602
9040809,-0.0149027193074,-0.0228344161915,-0.000340421490276,0.999628122107,-0.0248742261447,0.0566538124911,-0.0001317770873,0.440116132106,-0.287027987749,9.6242327668
9040888,-0.0154539507865,-0.0225189472734,-0.000348136590595,0.99962690601,-0.01875574624,0.0531483402605,-7.90662523803e-05,0.434776257633,-0.298151799974,9.64045708073
9040972,-0.0154538132883,-0.0222188874121,-0.000343492384825,0.999633624239,-0.0142332781742,0.0480652264918,-4.74397514282e-05,0.428938711123,-0.29812232266,9.63965718179
9041048,-0.015779927445,-0.0221802128263,-0.000350131912885,0.999629386051,-0.0102427271504,0.0441639781077,-2.84638508569e-05,0.426393863881,-0.303132459758,9.59895465453
9041129,-0.0152595251334,-0.0215160633142,-0.000328439209549,0.999651988464,-0.00784839653607,0.0418232290773,-1.70783105141e-05,0.413374787567,-0.292970432886,9.59392617163
9041208,-0.0151611881693,-0.0209686059455,-0.000318015476987,0.99966512133,-0.00470903792164,0.0374389492288,-1.02469863085e-05,0.40364798045,-0.291661620083,9.61317515732
9041288,-0.0157034803025,-0.0216492051674,-0.000340089539219,0.999642234482,0.00143147786163,0.0318285508894,-6.14819178509e-06,0.416486669129,-0.301889660038,9.60628919596
9041368,-0.015987812759,-0.0222016712463,-0.000355089106519,0.999625604688,0.0085213078233,0.0271852417014,-3.68891507105e-06,0.427062924329,-0.307308223513,9.6045518208
9041448,-0.0157110739253,-0.0228516328135,-0.000359161846192,0.999615344038,0.0170321064149,0.0218451158199,0.00255192701973,0.439154761433,-0.301700815456,9.59536911006
9041528,-0.0151750424328,-0.0228381455062,-0.000346700207991,0.999623937787,0.0234156557543,0.0182153502295,0.00408529658061,0.439227258716,-0.291632605973,9.60302759274
9041608,-0.0138995913295,-0.023082913858,-0.000320959618492,0.999636872786,0.0285228555423,0.0164631809367,0.00245117794837,0.444777420903,-0.267635167832,9.62198789232
9041688,-0.0121987893028,-0.0236390173564,-0.00028846948459,0.999646088965,0.0303101052307,0.0158375694225,0.00147070676902,0.45624780386,-0.235280192496,9.63863131571
9041768,-0.0105046964744,-0.0243403235027,-0.000255777614906,0.999648505517,0.0305310749208,0.015462202514,0.000882424061412,0.470552058781,-0.20293851833,9.65484229407
9041849,-0.00803904839283,-0.0246392742327,-0.000198142881272,0.999664063876,0.028960896489,0.0143856022459,0.000529454436847,0.476979830239,-0.155521354406,9.66887844407
9041928,-0.00595313390673,-0.0244827674371,-0.000145795480675,0.999682516121,0.027167409307,0.0124625719007,0.000317672662108,0.473653888134,-0.115100047751,9.6636531846
9042008,-0.00341594309421,-0.0234258917681,-8.00439465687e-05,0.999719736987,0.0248142468135,0.0100316835092,0.000190603597265,0.452504709589,-0.0659475664924,9.64998354162
9042088,-0.000834622397282,-0.0220126470029,-1.83767074344e-05,0.999757343779,0.0229766592559,0.00814746041283,0.00224281246567,0.42497115217,-0.0161053636259,9.64585189865
9042168,0.00103720508263,-0.0211219852811,2.19127308825e-05,0.999776367726,0.0210227265984,0.00659123649355,0.00304844772525,0.407972177386,0.0200248824104,9.65103435819
9042248,0.00143099816411,-0.0215253242776,3.08098696336e-05,0.999767278775,0.0155934663893,0.00565750214198,0.00182906863515,0.415011044469,0.0275772402373,9.63331427946
9042328,0.00213850945474,-0.0216104256366,4.62250003583e-05,0.999764179266,0.00935607983355,0.00339450128519,0.00109744118109,0.416600742892,0.041206621242,9.6320196187
9042408,0.00194228153661,-0.0227715851381,4.42403846899e-05,0.999738806137,0.00348519759282,0.00203670077111,0.000658464708654,0.438862956722,0.037413241544,9.62860920042
9042488,0.00058214684088,-0.0234901432741,1.36784893444e-05,0.999723898928,-0.00216578205893,0.00122202046267,0.000395078825192,0.451980864853,0.0111951971237,9.61267657982
9042570,-0.000659332147962,-0.0239428625173,-1.57908291866e-05,0.99971311103,-0.0064077499729,0.0007332122776,0.000237047295115,0.46056987023,-0.0126759151731,9.60982077211
9042649,-0.00227550313159,-0.0245027876434,-5.57730597523e-05,0.999697170333,-0.00937862078275,0.00043992736656,0.000142228377069,0.471469357441,-0.0437579941722,9.61193801014
9042729,-0.00386688135925,-0.0252956980881,-9.7847505623e-05,0.999672529038,-0.0120125233916,0.000263956419936,8.53370262415e-05,0.48686759591,-0.0743782498725,9.61392661346
9042808,-0.00651224071804,-0.0258509091409,-0.000168407197842,0.999644583268,-0.0144442450798,0.000158373851962,5.12022157449e-05,0.497782480153,-0.125311545871,9.61727455694
9042888,-0.00890838686781,-0.0256534956683,-0.000228615583009,0.999631175253,-0.0159032780927,9.5024311177e-05,3.0721329447e-05,0.494036343561,-0.171433834261,9.61760738187
9042968,-0.0106203988855,-0.0257673549633,-0.000273765942627,0.999611512338,-0.016353007839,0.00175977483255,1.84327976682e-05,0.496816485092,-0.204613871113,9.62810214397
9043048,-0.0121580234709,-0.0254711362266,-0.000309802105138,0.999601574482,-0.0153457755024,0.0036100052683,1.10596786009e-05,0.490823124697,-0.234098699865,9.62194915259
9043128,-0.0131266135723,-0.0252851636465,-0.000332043369047,0.999594038729,-0.0138900559775,0.00514583359122,6.63580716054e-06,0.487705948793,-0.252986697946,9.6307072064
9043208,-0.0140218759151,-0.0247946581451,-0.000347808773493,0.999594163124,-0.0104624838938,0.00649302064643,3.98148429633e-06,0.477934777772,-0.27006558078,9.62423045055
9043288,-0.0150633165077,-0.02456741343,-0.000370220508487,0.999584614542,-0.0062774903363,0.00772702294101,2.3888905778e-06,0.472790335657,-0.289650296954,9.60813396857
9043368,-0.0152025569773,-0.0242848812847,-0.000369343940013,0.999589410902,-0.00376649420178,0.00889311437923,1.43333434668e-06,0.467309468728,-0.29230316035,9.60733462553
9043448,-0.0148890676464,-0.0240653161757,-0.000358453701381,0.999599443644,0.00114562397063,0.00959276924216,8.60000608006e-07,0.463781528405,-0.286712273407,9.62217791033
9043530,-0.0139564870028,-0.0235553399122,-0.000328873104049,0.999625056846,0.004944274997,0.00958687209845,5.16000364804e-07,0.453524478566,-0.268513690949,9.61408504942
9043608,-0.0121542727771,-0.0223854483679,-0.000272167165854,0.999675492987,0.00722346561282,0.00915764375077,3.09600218882e-07,0.430610837042,-0.233652524872,9.60731397155
9043688,-0.010087001178,-0.0214460563613,-0.000216387179659,0.999719096672,0.00901667004377,0.00762303655777,1.85760131329e-07,0.412313668973,-0.193821632111,9.60373016515
9043768,-0.00808657175092,-0.0207729685904,-0.000168023854818,0.999751500575,0.0100925927023,0.00457382193466,1.11456078798e-07,0.399180586638,-0.155318466327,9.60038278049
9043848,-0.00580400796744,-0.0206848359,-0.000120082668448,0.999769191681,0.011163836359,0.0027442931608,6.68736472786e-08,0.398004501885,-0.111626432579,9.61369724031
9043929,-0.00437909452385,-0.0206254535153,-9.03408952819e-05,0.999777678305,0.0113808924915,0.00164657589648,4.01241883671e-08,0.396820010701,-0.0842141115008,9.61306679023
9044009,-0.00364628642722,-0.0200303038581,-7.30513670605e-05,0.999792721611,0.010659746048,-0.00284326501527,2.40745130203e-08,0.385574828686,-0.0701609205137,9.61867402434
9044092,-0.0023632734655,-0.0203376806892,-4.80735786084e-05,0.999790373714,0.00809860787467,-0.00681423974671,1.44447078122e-08,0.39127756811,-0.0454484346325,9.61341923882
9044168,-0.00190341457864,-0.0204150461879,-3.88664671009e-05,0.999789778599,0.0048591647248,-0.00962251464703,8.6668246873e-09,0.392783850436,-0.0366064472541,9.61385767
9044250,-0.00263664401541,-0.0214623034619,-5.66016885933e-05,0.999766179881,0.00291549883488,-0.0121588597101,5.20009481238e-09,0.412841233113,-0.0506942882743,9.61100826655
9044328,-0.00376072778274,-0.0228554715176,-8.59762739442e-05,0.999731702486,0.00174929930093,-0.0141063568095,0.00297983355029,0.439719713013,-0.0723151020173,9.61169282614
9044411,-0.00446675769341,-0.0234159327634,-0.000104623029044,0.999715825234,0.00104957958056,-0.0152748550691,0.0111530814823,0.449861296802,-0.0857664305952,9.59749893177
9044488,-0.00551316816624,-0.0239507487895,-0.000132084404658,0.999697928958,-0.00107301249751,-0.0159759540248,0.0190368606718,0.460974070561,-0.106047656209,9.61436113274
9044568,-0.00639656157708,-0.0245520388316,-0.000157099202148,0.999678076537,-0.00277225780582,-0.0163966133983,0.0237671281855,0.472430138138,-0.123004794897,9.6113103442
9044648,-0.00775835259404,-0.0246799620251,-0.000191539959777,0.999665279357,-0.00464318511373,-0.015371938838,0.023199768202,0.474994215695,-0.149220229233,9.61283175339
9044728,-0.00878896142251,-0.0252612896406,-0.000222099962607,0.999642222035,-0.00534005143701,-0.0139057539789,0.0203052118431,0.486827729368,-0.169259052823,9.62475792655
9044809,-0.00961090062406,-0.0258486881317,-0.00024852370268,0.999619634735,-0.00533248116951,-0.0113232828176,0.0121831271059,0.49823740056,-0.185113069633,9.62568870612
9044890,-0.010019298064,-0.0267778266193,-0.000268404760675,0.999591161239,-0.00319948870171,-0.00679396969053,0.00220159552598,0.516096530912,-0.192949538557,9.62385297221
9044968,-0.00967744940517,-0.0267703344594,-0.000259173591956,0.999594732377,-0.00191969322103,-0.00407638181432,-0.00251025323757,0.516038101653,-0.186398672109,9.62562457385
9045049,-0.00923645243857,-0.0261960328959,-0.000242051813869,0.999614124159,-0.00115181593262,-0.00244582908859,-0.00150615194254,0.50498971646,-0.177919169086,9.62668753484
9045129,-0.00867900846504,-0.0251478142852,-0.000218335374033,0.999646044647,-0.000691089559569,-0.00146749745316,-0.000903691165525,0.484474315716,-0.167085383287,9.62157922745
9045211,-0.00828978977129,-0.0242313635098,-0.00020093882007,0.999671986219,-0.000414653735741,-0.000880498471893,0.00286330579238,0.466897831617,-0.159627431144,9.62402090683
9045292,-0.00785443107376,-0.0231888196345,-0.000182189600158,0.999700231751,-0.000248792241445,-0.000528299083136,0.00469781390566,0.447014554683,-0.151321937202,9.62931663712
9045370,-0.00732896477081,-0.0221688017314,-0.000162518675199,0.999727364881,-0.000149275344867,-0.000316979449882,0.00494713865071,0.426944302878,-0.141071397185,9.62100190732
9045454,-0.00629720972659,-0.0214960755087,-0.000135399268632,0.9997490913,-8.95652069202e-05,-0.000190187669929,0.00296828319042,0.414183891297,-0.121274123711,9.62630813658
9045528,-0.00591870040123,-0.0213921933552,-0.000126645184569,0.999753633157,-5.37391241521e-05,-0.000114112601957,7.82096684067e-05,0.412034308167,-0.113944742781,9.62302752965
9045608,-0.0053695571801,-0.0212861643506,-0.000114324829143,0.999758997955,-3.22434744913e-05,-0.00177122780702,4.6925801044e-05,0.409786877625,-0.103322189907,9.61842554367
9045689,-0.00514206859125,-0.0211465024248,-0.000108762525432,0.999763158321,-0.00172210633054,-0.00361687705299,2.81554806264e-05,0.406762478137,-0.0988640195107,9.61063652859
9045771,-0.00563034459091,-0.0213562399017,-0.000120272328066,0.999756068134,-0.00273602404417,-0.00514995666203,1.68932883759e-05,0.410454502263,-0.108160125574,9.60237181706
9045850,-0.00591271008467,-0.0215000459394,-0.000127155154947,0.999751354946,-0.00334437467235,-0.0077725646733,1.01359730255e-05,0.412909136905,-0.113498369045,9.59501878848
9045928,-0.00634702231865,-0.021441018275,-0.00013612065734,0.999749958497,-0.00413507511072,-0.00977181954152,6.08158381531e-06,0.412227136196,-0.121968558781,9.60545102162
9046014,-0.00635210614365,-0.0220869798151,-0.000140335908041,0.999735863304,-0.00588656555813,-0.0113970625239,3.64895028918e-06,0.424507204569,-0.122022849136,9.6018941347
9046088,-0.00700271063923,-0.0228830628836,-0.000160289373206,0.999713609882,-0.00651176976511,-0.0127978983748,2.18937017351e-06,0.439776111071,-0.134505271981,9.60047826305
9046169,-0.0070944611222,-0.0232469840972,-0.000164973563698,0.999704565927,-0.00646120222784,-0.0132127098239,1.31362210411e-06,0.447500933977,-0.13648806187,9.61590931134
9046248,-0.00771753891951,-0.0236401232369,-0.000182500013359,0.999690727605,-0.00685655176694,-0.0134615966933,7.88173262464e-07,0.455008869712,-0.148451643275,9.61415461269
9046328,-0.00808618885734,-0.0243200222523,-0.000196720915427,0.999671501729,-0.0070937614904,-0.013610928815,4.72903957478e-07,0.467653916798,-0.155390371951,9.60448266751
9046408,-0.00868338353865,-0.024188186945,-0.000210104704326,0.999669688607,-0.00595901714009,-0.0132748380266,2.83742374487e-07,0.465424718243,-0.166975634303,9.61065050871
9046488,-0.00928224459574,-0.024423458695,-0.000226781944623,0.999658583303,-0.00357541028405,-0.0130731835535,1.70245424692e-07,0.470551543592,-0.178715195035,9.62249149907
9046568,-0.00944964121527,-0.0242544046286,-0.000229273115326,0.999661130369,-0.00214524617043,-0.0125265008082,1.02147254815e-07,0.467881554817,-0.182167628984,9.63462391678
9046648,-0.0092555180459,-0.0233196587007,-0.000215903490163,0.999685191593,-0.00128714770226,-0.0134755613454,6.12883528892e-08,0.449998990264,-0.178493005369,9.63855148508
9046728,-0.00931420907971,-0.0221100051226,-0.000205996509869,0.999712133941,-0.000772288621355,-0.0144706877292,-0.00170272347284,0.4261013424,-0.179400693358,9.62678223626
9046808,-0.00903245927355,-0.0212363324563,-0.000191867409506,0.999733662557,-0.000463373172813,-0.0163448337438,-0.00315008439101,0.408650291524,-0.173720381835,9.61301692232
9046888,-0.00879037183796,-0.021022104273,-0.00018484010721,0.999740349455,-0.000278023903688,-0.0178950114141,-0.00359281088046,0.404644005481,-0.169115094091,9.61601048176
9046968,-0.00894128820133,-0.0196056571499,-0.000175340546176,0.999767793454,-0.000166814342213,-0.0209535683235,-0.00385844677412,0.378058797087,-0.172337425595,9.63408718872
9047048,-0.00871328927062,-0.0184640482348,-0.000160916137298,0.999791544082,0.00245405176344,-0.0266199130224,-0.00231506806447,0.358276949395,-0.169003580846,9.69521144775
9047128,-0.00837248725969,-0.017229090231,-0.000144276812859,0.99981650271,0.00572933167269,-0.0334252403334,-0.00138904083868,0.334915672811,-0.162693711007,9.71345065039
9047209,-0.0090665960231,-0.0138322769618,-0.000125428824042,0.999863215254,0.00982294992554,-0.0443194777034,-0.00083342450321,0.269902411499,-0.176864301556,9.75144865073
9047291,-0.00961153476906,-0.0119913800078,-0.000115269179281,0.999881898985,0.0127048109387,-0.05511292074,-0.000500054701926,0.23400691687,-0.187521437379,9.75293905616
9047370,-0.00976630673911,-0.0074918598072,-7.3173344529e-05,0.999924240098,0.0144339275466,-0.0726569281599,-0.000300032821156,0.146389654272,-0.190803256714,9.76676198838
9047453,-0.00903367940896,-0.00467317041032,-4.22181070491e-05,0.999948274828,0.0133429472041,-0.0938255841485,-0.000180019692693,0.0911856748877,-0.176252356861,9.75398677311
9047529,-0.00864648650828,-0.00246358706752,-2.13022333038e-05,0.999959583461,0.0114112888141,-0.111635058479,-0.000108011815616,0.0480076402842,-0.168479497612,9.74153324062
9047614,-0.00741006476727,-0.00122189858169,-9.05460298263e-06,0.999971798513,0.00897522359579,-0.135091444921,-6.48070893696e-05,0.0237767606842,-0.14418332845,9.72807561698
9047690,-0.00556770405248,0.000743608618609,4.14025803713e-06,0.999984223726,0.00836496458771,-0.164490118999,0.00294094617661,-0.0144643635114,-0.108297232178,9.72502886628
9047768,-0.00490845072412,0.00109955336981,5.39717181411e-06,0.999987348952,0.00842449924432,-0.189366054491,0.0047443981362,-0.0213678869056,-0.0953847003905,9.71601821088
9047848,-0.00418345405975,0.0002048020832,8.56787621855e-07,0.999991228345,0.00931160016121,-0.219616457999,0.00284663888172,-0.00396218600081,-0.0809334166699,9.67278343141
9047928,-0.00377626937489,-0.00105386987612,-3.97972712436e-06,0.999992314536,0.0106952408343,-0.245003431148,0.00170798332903,0.020367604171,-0.0729809069355,9.66288371485
9048014,-0.00398197020213,-0.00363732641234,-1.4483936034e-05,0.999985456674,0.012376805361,-0.274283387066,0.00102478999742,0.0703996628444,-0.0770679472375,9.6768157587
9048088,-0.00395617342646,-0.00613438926684,-2.42693543811e-05,0.999973358331,0.0112572937698,-0.305473442584,0.000614873998452,0.118854250832,-0.0766471294265,9.686611506
9048171,-0.00375559736421,-0.00922321996175,-3.46404183262e-05,0.999950412022,0.00888282656918,-0.330572826816,0.000368924399071,0.17881220504,-0.0728033362496,9.69201011405
9048250,-0.00378960336849,-0.0123869355883,-4.69455117122e-05,0.999916096745,0.00532969594151,-0.357126089015,0.000221354639443,0.240644355495,-0.0736095225017,9.71105100984
9048330,-0.00379616117885,-0.0151218419773,-5.74119278587e-05,0.999878450493,0.0031978175649,-0.378166327072,0.000132812783666,0.294263637223,-0.073853814087,9.7260668498
9048410,-0.00404720351836,-0.0186923936365,-7.56657614914e-05,0.999817087691,-0.000209759768368,-0.40058134132,7.96876701993e-05,0.364024172324,-0.0787887923584,9.73172447145
9048489,-0.00505356438338,-0.0219247268814,-0.000110826074977,0.999746845734,-0.00267999622979,-0.419564320667,4.78126021196e-05,0.425512946998,-0.0980303506104,9.69633297755
9048569,-0.00585095774088,-0.0236203617039,-0.000138242676095,0.999703869001,-0.00160799773788,-0.439893599567,0.00173144780712,0.459054329478,-0.113645428384,9.70837748428
9048649,-0.00753550683525,-0.0261226214295,-0.000196919988798,0.999630324675,-0.000964798642725,-0.462733418443,0.00103886868427,0.508148999054,-0.146477651317,9.71488592783
9048730,-0.00880261125498,-0.028382732352,-0.000249952553668,0.999558338499,-0.000578879185635,-0.48282266069,0.000623321210563,0.551731590594,-0.170965388398,9.70586230499
9048810,-0.00936882782848,-0.0306823875088,-0.00028760605569,0.99948523423,0.00178112279593,-0.505092767514,0.000373992726338,0.596077078136,-0.18182730799,9.69781450946
9048890,-0.0108632245132,-0.0315534024368,-0.00034296273446,0.999442972622,0.00447419416925,-0.522711732223,0.0036299161275,0.61310756402,-0.210849955351,9.69801365563
9048970,-0.0105334508474,-0.0352449339347,-0.000371502240752,0.999323122434,0.00694141711617,-0.5426482924,0.00600916022966,0.678153073568,-0.202406165837,9.59997087526
9049049,-0.0103530587362,-0.0380118938841,-0.000393845160861,0.999223576075,0.00799606082286,-0.556312988753,0.00701101662949,0.72125052212,-0.196142791299,9.46405191358
9049130,-0.0100652947068,-0.0402852355975,-0.000405832823595,0.999137440463,0.00862884704688,-0.556849385458,0.006335060285,0.764586663369,-0.190708825414,9.46414281319
9049210,-0.00967842421225,-0.0420275169181,-0.000407138983337,0.99906949216,0.00943420884275,-0.549934492436,-0.001732934628,0.800883415258,-0.184096563559,9.50058921819
9049290,-0.0074890386989,-0.0446044148572,-0.000334386399829,0.998976600657,0.00821466567442,-0.549616767176,-0.0116820123134,0.850673625815,-0.142540240382,9.50593706973
9049370,-0.00560516111281,-0.0479539030173,-0.000269103184182,0.998833786442,-0.000179481332893,-0.553257342573,-0.0227597396621,0.918136718214,-0.10707195917,9.53931272157
9049449,-0.00213804620684,-0.055487499055,-0.000118818163119,0.998457085752,-0.00819579996751,-0.557570138119,-0.0294063760714,1.06779016936,-0.0410194193987,9.57729462513
9049529,-0.000471792546166,-0.0621117498638,-2.93605532205e-05,0.998069089331,-0.0117285209639,-0.564414716061,-0.0316915976711,1.1958894666,-0.0090493408482,9.57111392718
9049610,6.61716320852e-05,-0.0662093344201,4.39081425123e-06,0.997805752458,-0.0151252237461,-0.573204053502,-0.0283801399548,1.28041049026,0.00127416013952,9.60571273497
9049690,-1.00651787667e-05,-0.0704296408851,-7.10651652036e-07,0.997516749525,-0.0197173857842,-0.57932903609,-0.0238391249563,1.35841700339,-0.000193184580353,9.57188422179
9049774,-3.10796349497e-05,-0.0760118746996,-2.36927584104e-06,0.997106911987,-0.0211956128227,-0.587686616318,-0.0143034749738,1.46292117127,-0.000594751080243,9.53937668542
9049850,-6.09379153087e-06,-0.0825485633737,-5.04756448331e-07,0.996587043187,-0.0220825490458,-0.598235135255,-0.00177104400087,1.60151986463,-0.00011743048213,9.60103559987
9049930,0.00161893865078,-0.0883871393022,0.000143655786858,0.996084871889,-0.0255945412099,-0.603712866493,0.00745117482872,1.73495731551,0.0315330036248,9.69908309088
9050010,0.000678423261134,-0.0946612780148,6.45101080992e-05,0.995509305845,-0.031107257,-0.594654493454,0.0163900266182,1.88828235683,0.0134131383565,9.83931444193
9050090,-0.00015960623004,-0.0987665557285,-1.58412113499e-05,0.995110617843,-0.0344148864741,-0.579854288279,0.0238817879991,2.00254345707,-0.00320486478883,9.98881495788
9050170,-0.000268954403799,-0.104137144707,-2.81612589673e-05,0.994562910008,-0.0355480840356,-0.553520872653,0.0334851255653,2.15824905764,-0.00551422136353,10.193197527
9050250,-0.00168517476104,-0.109394782262,-0.000185462670467,0.993996935309,-0.0379307628184,-0.516010630144,0.0409498883508,2.29357094703,-0.0349119947322,10.2938004132
9050330,-0.00305701501371,-0.115007931348,-0.000353931144116,0.993359806475,-0.040211750211,-0.481159472855,0.0445773658992,2.40493102159,-0.0630851460581,10.2466624903
9050410,-0.00609705287272,-0.122080694061,-0.000749956242613,0.992501167581,-0.0381748221548,-0.433855994672,0.0471795424897,2.53088384733,-0.124521187732,10.1314702164
9050489,-0.00820633203855,-0.127161343262,-0.00105210545323,0.99184753968,-0.0339728348909,-0.391851825795,0.048740848444,2.61722945024,-0.166171216057,10.0379339951
9050569,-0.0102389435136,-0.133222885505,-0.00137640484578,0.991032255945,-0.031877332594,-0.339830850597,0.0488262518937,2.73535619798,-0.206484123677,9.98803718658
9050648,-0.0106352222973,-0.135310213854,-0.00145249686155,0.990745137927,-0.035302621892,-0.287333762404,0.0467490436561,2.79737370048,-0.215827817956,10.0478816638
9050730,-0.0106822705583,-0.139237229385,-0.00150208979097,0.990200296291,-0.0390605557166,-0.247747398321,0.0446513385907,2.89587576448,-0.217842732034,10.0912103752
9050809,-0.0115222183652,-0.140310783875,-0.00163295718405,0.99003911835,-0.0451465265645,-0.206542287352,0.0425413354285,2.92959846528,-0.235811092101,10.1253478877
9050888,-0.0127145554056,-0.141452373425,-0.00181692449151,0.989861740305,-0.0496494891962,-0.168622828865,0.0404239534083,2.94121295978,-0.259041956774,10.0775956479
9050970,-0.0135414542365,-0.143114821863,-0.00195832686891,0.989611510511,-0.043837465546,-0.112667328978,0.0314911030898,2.94075963134,-0.272501635246,9.95102145613
9051050,-0.0160162826055,-0.145154345161,-0.0023500333843,0.9892765903,-0.0263024793276,-0.0450388241294,0.0108065506861,2.94862791992,-0.31840582856,9.82647464736
9051130,-0.0161044544514,-0.146674318866,-0.0023882592929,0.989050851549,-0.0123759671049,0.00873467068515,-0.0101179819854,2.95574309472,-0.317457344792,9.74121207479
9051210,-0.0165920305813,-0.145462325989,-0.00243981252601,0.989221645312,-0.000188849218056,0.0597291302782,-0.0273552922643,2.93774612417,-0.327901582168,9.76762666504
9051293,-0.0169967319345,-0.145581271787,-0.00250142847652,0.989197122551,0.00669773145256,0.0988396072633,-0.0355692281244,2.95448126093,-0.337520006918,9.81436062061
9051370,-0.0161628337231,-0.145261973848,-0.00237333869603,0.989258353022,0.00912691960908,0.142739016405,-0.0370920691487,2.93722844406,-0.319827885499,9.78063059111
9051450,-0.0181527764872,-0.144924415037,-0.00265930791754,0.989272621027,0.0169697834249,0.200579726437,-0.0346002532716,2.88186576272,-0.353265923194,9.61841641497
9051530,-0.019384032441,-0.144600462633,-0.00283326682773,0.989296183199,0.0246553321447,0.250183304608,-0.0314024034995,2.85104235558,-0.374047006309,9.53712906041
9051609,-0.019778692616,-0.142056293059,-0.00283905239617,0.989656886351,0.028840971315,0.299527194338,-0.0226726526529,2.81507063918,-0.383882034352,9.59609572238
9051690,-0.0193474958114,-0.139879838582,-0.00273372837998,0.989975672374,0.0296495945714,0.335518879098,-0.0136035915917,2.79061456735,-0.378290883209,9.67050120662
9051769,-0.018707470982,-0.134987424096,-0.00254906266189,0.990667415506,0.0263035579721,0.369458901736,-0.00390525434042,2.70196009295,-0.367514167376,9.72376362314
9051849,-0.0170418247491,-0.130684761758,-0.00224670946527,0.991274947505,0.0268500763813,0.408553278024,0.000636677825985,2.57646251817,-0.330162936461,9.59602782232
9051930,-0.0151479267781,-0.128694209754,-0.00196603063703,0.99156667724,0.0288807476726,0.443503535455,0.0025104570029,2.5018822338,-0.289556265295,9.47150230863
9052010,-0.0119251262462,-0.122898254772,-0.00147688046875,0.992346526755,0.0292477703245,0.482778362557,0.00150627420174,2.39680018135,-0.229039817526,9.52535562956
9052090,-0.00932053918068,-0.117484914845,-0.0011027082814,0.993030314929,0.025211083301,0.511877229618,-0.00250175597065,2.31340023576,-0.180998360731,9.63835221807
9052170,-0.00754918371452,-0.109261071326,-0.000829824060362,0.993984074073,0.0129981996733,0.541255871575,-0.0100148548116,2.16232495835,-0.147624503499,9.71572697781
9052249,-0.00549773717479,-0.100699277024,-0.000556455210384,0.994901563397,0.00779891980398,0.569525308285,-0.0183539246694,1.97112332218,-0.106531214551,9.63693508683
9052329,-0.00349363542596,-0.0952427688252,-0.000334265123507,0.995447888021,0.00765918231262,0.589892490804,-0.0225059864611,1.84395249184,-0.0670311908885,9.54776142319
9052410,-1.21132968292e-05,-0.0861071548553,-1.04692994774e-06,0.996285881529,0.00459550938757,0.605518320806,-0.0207403229215,1.68672597753,-0.000235546808505,9.68507509733
9052490,0.00228606313537,-0.0789018670527,0.000180939225144,0.996879750297,0.0010545453867,0.614042438685,-0.0205323049207,1.56653269101,0.0451090832919,9.83402210796
9052570,0.000705519119142,-0.0720800451105,5.09864861931e-05,0.997398599728,0.000632727232018,0.619582599474,-0.0272185351036,1.42713965245,0.0138973408443,9.82235500428
9052649,-0.00103810973006,-0.0655860101072,-6.82324221321e-05,0.99784637743,0.0148530984289,0.633974637545,-0.0333587235206,1.27862096432,-0.0201525952493,9.68463133142
9052730,-0.00160436855868,-0.0590549914319,-9.49117407975e-05,0.998253437249,0.0263651515773,0.642609860387,-0.035340076325,1.14521702073,-0.0310057502648,9.64533217776
9052808,7.68485726991e-05,-0.0518319389914,3.98857189556e-06,0.998655818678,0.0273127226059,0.637148742557,-0.0373802681306,1.01968482303,0.00150784378642,9.79676882692
9052890,0.00118825599129,-0.0470899950578,5.60171510144e-05,0.998889942524,0.0240500546698,0.631743621551,-0.0411585235827,0.929760874289,0.0234102018773,9.83926794288
9052970,0.00112747419738,-0.0433624649104,4.89361205362e-05,0.999058768564,0.0186869334165,0.633608829685,-0.0442768569769,0.845639564124,0.0219469866049,9.72327009434
9053051,-0.000567762373501,-0.0374360733806,-2.12697068555e-05,0.999298863005,0.00695525943529,0.627065533459,-0.038485435907,0.727171450877,-0.0110132448046,9.69173919161
9053130,-0.000919631858904,-0.0347757126658,-3.2000222431e-05,0.999394718348,-0.00902323624415,0.612922994248,-0.0307536826505,0.676201876874,-0.0178606946855,9.70466353206
9053210,-0.00243662306248,-0.0342227858319,-8.34371524177e-05,0.999411255108,-0.0305296553727,0.592092458939,-0.0184522095903,0.655675779445,-0.0466294417137,9.5625411124
9053290,-0.00381180443028,-0.0336450083189,-0.000128321775434,0.999426569136,-0.0430078167884,0.580871207939,-0.00724011520104,0.628037230362,-0.071073294911,9.31709556954
9053370,-0.00331249215182,-0.03009653793,-9.97402763256e-05,0.999541502816,-0.0479405732691,0.569881556723,0.0101293929691,0.553275000571,-0.0608399095638,9.17892621013
9053450,-0.00373752085456,-0.0253233717115,-9.46776537846e-05,0.999672320723,-0.0585626482638,0.540726192737,0.0239566183629,0.469871015967,-0.0693045084824,9.26816769385
9053530,-0.00503797913935,-0.0241608274575,-0.000121758834558,0.999695382783,-0.066212963445,0.514719173116,0.0309758834147,0.449995566123,-0.0937763012809,9.30375607163
9053610,-0.00573066998883,-0.0209167547464,-0.000119895219298,0.999764789547,-0.0610122811401,0.497412201097,0.0326333020771,0.387313221022,-0.1060651753,9.25160710734
9053690,-0.00750031309194,-0.0197383727505,-0.000148076991518,0.999777035152,-0.0519322108967,0.486176637763,0.0310736129057,0.36359018359,-0.138098776811,9.20355831714
9053770,-0.00723522096693,-0.0174221625671,-0.000126075632802,0.999822036131,-0.043078648259,0.463259077427,0.0211983081122,0.325893184861,-0.135292282444,9.34735098271
9053855,-0.00795159235882,-0.0130419785239,-0.00010371659767,0.999883327303,-0.035638060369,0.440569049935,0.00633363394539,0.246292986112,-0.150128377279,9.43841498538
9053930,-0.0100271274398,-0.0113076934527,-0.000113396635074,0.99988578344,-0.025639736836,0.42993486387,-0.00343655067762,0.213137496989,-0.188957554932,9.42026965651
9054010,-0.0107575503707,-0.00872711211856,-9.38913573354e-05,0.999904047301,-0.0128297017328,0.418446071493,-0.00631883102119,0.165232044092,-0.203635935547,9.46277315621
9054090,-0.00988380616364,-0.00754394880411,-7.45686923077e-05,0.999922693838,-0.0076978210397,0.402187614715,-0.00762250916587,0.144629057998,-0.189458627979,9.58260680144
9054168,-0.0108601822429,-0.0058072011858,-6.30720464844e-05,0.999924161563,-0.0144095640374,0.380087528865,-0.00755333592976,0.112395392563,-0.210161503691,9.67390002203
9054248,-0.0121724437536,-0.00414091514696,-5.04092236656e-05,0.99991733753,-0.0188622998976,0.367678857479,-0.00453200155785,0.0798870841704,-0.234793657586,9.64224527445
9054332,-0.0133163301395,-0.000954049837478,-1.2705574945e-05,0.999910878518,-0.0151485904917,0.357679514278,0.00622029035599,0.0182441499163,-0.254600773409,9.55717246008
9054410,-0.0135365778821,0.0010836663287,1.46704864368e-05,0.999907789004,-0.0184543356472,0.338057826391,0.0126716655043,-0.0208963921303,-0.260978379084,9.63709160227
9054488,-0.0139208918364,0.000511775461985,7.12506220489e-06,0.999902968695,-0.025546063478,0.321602222982,0.014414040286,-0.00990421345201,-0.269353925644,9.67163555828
9054568,-0.0155000812,0.000123222702325,1.91019138415e-06,0.999879858931,-0.0272469598077,0.308749030507,0.0175879154623,-0.00235122558097,-0.295687648355,9.53482346266
9054648,-0.0160901615541,0.00130735392847,2.10382774143e-05,0.999869690052,-0.0214564566222,0.300185734899,0.0220463809368,-0.0246344914521,-0.303108176171,9.41538665938
9054728,-0.0161017252873,0.00196068956695,3.15746388691e-05,0.999868435917,-0.0128738739733,0.285682576182,0.0183361092997,-0.0372861904767,-0.306123971865,9.50222072732
9054808,-0.015562688408,0.00119354122024,1.85769731317e-05,0.999878181502,-0.00772432438399,0.269318259845,0.00546769478078,-0.0228505546181,-0.297877802308,9.56677101671
9054890,-0.0154328524941,-3.45218232659e-05,-5.32833663667e-07,0.999880905844,0.000473686107151,0.259925360105,-0.00140197380761,0.000654877190096,-0.292690680408,9.47932676286
9054969,-0.0156698492298,0.000992143878382,1.55486617028e-05,0.999876728019,0.0177375041842,0.253863930199,-0.000841184284567,-0.0185212668012,-0.292451449261,9.32821910215
9055048,-0.0150290540219,0.00187407808077,2.81688516645e-05,0.999885300709,0.0285214850919,0.24554448158,-0.0043359211239,-0.0350547766823,-0.281055162769,9.34720894176
9055128,-0.0149503839094,7.32632932606e-05,1.09543679321e-06,0.99988823408,0.0260523823459,0.228207800626,-0.0128181141494,-0.00140041239608,-0.285709558843,9.55205433966
9055210,-0.0149907008472,-0.000978408557896,-1.46686852954e-05,0.999887154328,0.0228681604524,0.214825961623,-0.0115220790428,0.0185527860096,-0.284192633499,9.47576400028
9055290,-0.0157353264764,-0.00223864485808,-3.5230257803e-05,0.999873685387,0.024363147808,0.207222548283,-0.00521048717984,0.0417774528558,-0.293577545432,9.32512376394
9055368,-0.0141426840783,-0.000773383613649,-1.09388174128e-05,0.999899688091,0.0244087600984,0.198403599664,0.00155629836818,0.0145319844088,-0.265689669349,9.39036273004
9055448,-0.0135814355007,-0.00100239524481,-1.36152289647e-05,0.999907265514,0.0184764666122,0.189706710001,0.0043392995126,0.0190142577839,-0.257576069676,9.48002376473
9055528,-0.0147757236117,-0.00226343534363,-3.34476321335e-05,0.999888270625,0.00810604953709,0.185765646388,0.00728617038364,0.0430120165844,-0.280720069296,9.49623141949
9055608,-0.0160327360127,-0.00253852126945,-4.07048044724e-05,0.999868244135,0.0103976005213,0.187657908834,0.0162910239511,0.0478338652241,-0.302028494214,9.41545518958
9055688,-0.0157165429648,-0.00115439804875,-1.81453998103e-05,0.999875820946,0.014752361542,0.187090506056,0.0216939360916,0.02175713432,-0.296138776216,9.41774652684
9055770,-0.0135617755408,-0.000975801220522,-1.32348205696e-05,0.999907558668,0.0148110777857,0.182067473714,0.0155705020237,0.0188003645764,-0.261240903669,9.62885339462
9055848,-0.0121006749269,-0.00274699063964,-3.32430001249e-05,0.999923010338,0.0139949274089,0.178202274185,0.00934230121424,0.0534181679646,-0.235274356655,9.71936507022
9055928,-0.0113424177174,-0.00458168115704,-5.19712302926e-05,0.999925174729,0.0224447284736,0.178862984898,0.00730814097439,0.0875963792944,-0.216821386454,9.55603914467
9056017,-0.0112518416429,-0.00390657802269,-4.39593155806e-05,0.999929063872,0.0347513401573,0.181387861633,0.00736471501487,0.074105642518,-0.213411049646,9.48150676561
9056090,-0.00960230173538,-0.00352730716272,-3.38720400439e-05,0.99994767501,0.0404325469216,0.181200027429,0.00441882900892,0.0674477214483,-0.183592108303,9.55841278251
9056173,-0.00892237803155,-0.00520487458794,-4.64423364848e-05,0.999946647724,0.0366045399354,0.175979046168,0.00265129740535,0.101281355037,-0.173601608976,9.72713951765
9056250,-0.00816765621555,-0.00655518012294,-5.35433941788e-05,0.999945156565,0.0334563556207,0.174974907719,0.00371922875052,0.127806459507,-0.159227603569,9.74625444179
9056330,-0.00839424977474,-0.00670792006218,-5.63112074894e-05,0.999942266938,0.036250035708,0.185440366248,0.00989395835663,0.128398631563,-0.160658847298,9.56834204496
9056410,-0.00727247529934,-0.00368538970758,-2.68027964455e-05,0.999966763591,0.0340950332072,0.197679302225,0.0101932756286,0.0708142546216,-0.139730358427,9.60596496696
9056488,-0.00580769022723,-0.00293935206348,-1.70712079053e-05,0.999978815102,0.0276937509692,0.203319903566,0.00824441568447,0.0568537627339,-0.112329214812,9.67019782906
9056570,-0.00606572028977,-0.00444432536743,-2.69587967686e-05,0.999971726742,0.0195960810117,0.205001504125,0.00835216990238,0.0853481731677,-0.116478662921,9.60075905144
9056649,-0.00727522802769,-0.00481129097976,-3.50045705615e-05,0.999961959932,0.017291619406,0.211544435259,0.0109709628019,0.0911920716252,-0.137882524901,9.47529872676
9056730,-0.00691667790221,-0.00494199837082,-3.4183446079e-05,0.999963866872,0.0222942933646,0.225686755415,0.0125422385416,0.0923042090396,-0.129177027148,9.33729444846
9056810,-0.00589649825507,-0.00432791917284,-2.55202505295e-05,0.999973249529,0.0240188275553,0.227361106525,0.00752534312496,0.0821975840175,-0.111982720195,9.49510914832
9056889,-0.0041324597872,-0.00388682439165,-1.60624039838e-05,0.999983907428,0.0246278580083,0.225811576822,0.00451520587498,0.0744576678421,-0.0791606404176,9.57758753978
9056969,-0.00429174557847,-0.00343695329226,-1.47507520691e-05,0.999984883913,0.0301015570176,0.230841519861,0.00441188377083,0.0652647349826,-0.0814940478248,9.49395696234
9057050,-0.00481895874451,-0.00389045786392,-1.87483155244e-05,0.999980820627,0.0363656068534,0.23854207636,0.00562696069274,0.0729170843978,-0.0903161174156,9.37051604508
9057132,-0.00417040964169,-0.00272299444859,-1.13561431603e-05,0.999987596351,0.039272656632,0.24316241026,0.00593031678441,0.0511722757852,-0.0783711072169,9.39581086362
9057210,-0.00324885150286,-0.00020261906091,-6.58282728168e-07,0.99999470194,0.0354829157001,0.245508920538,0.00355819007065,0.00388830687734,-0.0623455549552,9.59486244224
9057290,-0.00354029106864,0.000673389171093,2.38400914889e-06,0.999993506419,0.0310806208337,0.251173727319,0.00468905441116,-0.0129899064986,-0.0682925343891,9.64486154127
9057370,-0.00401131203684,0.00211849433278,8.49802925676e-06,0.99998971059,0.026736483668,0.266066243048,0.00962447363009,-0.0403550864773,-0.0764097052038,9.5240262961
9057452,-0.00481552124,0.00426519246491,2.05395498909e-05,0.999979309019,0.0224272411227,0.277981582915,0.0134371052844,-0.0804767909,-0.0908568143332,9.43332921638
9057530,-0.00474033036187,0.00663993046894,3.14765115646e-05,0.999966719247,0.0134563446736,0.284279406713,0.0144476140926,-0.126337048661,-0.0901876933363,9.51226800102
9057610,-0.00375943199521,0.00861706660141,3.23967076614e-05,0.999955804916,0.00466828631249,0.291037931421,0.0129254690702,-0.166303051951,-0.072547968785,9.64821673323
9057691,-0.00382867378002,0.00988455967451,3.78468808392e-05,0.999943816074,-0.00103023876567,0.2989242568,0.0115864919952,-0.190282653924,-0.0736957221889,9.62348341884
9057770,-0.00401855508059,0.0107994561218,4.34010907364e-05,0.999933608336,-0.00232090350525,0.310041402949,0.00993172562738,-0.204430994942,-0.0760603153934,9.46283654911
9057850,-0.00441486430397,0.0121598125523,5.36884150791e-05,0.999916319023,-0.00139254210315,0.317988760822,0.00766179562228,-0.227285209514,-0.0825068948025,9.34322467116
9057930,-0.00238934702281,0.0152563769263,3.6457125964e-05,0.999880759218,0.000867234983959,0.324459935793,0.00204293700459,-0.288642351295,-0.0451945738932,9.45628991256
9058010,-0.00220358879422,0.0164025279701,3.61493778288e-05,0.999863040604,0.00307448135915,0.329619710959,-0.00345682847333,-0.31420388856,-0.0422002147949,9.57392845193
9058090,-0.00270320037462,0.0174151209693,4.70838741262e-05,0.999844689966,0.00567589936865,0.332715576059,-0.00675668776008,-0.332892693243,-0.0516563471387,9.55305307214
9058170,-0.00383236546653,0.0187466560958,7.18571931508e-05,0.999816918589,0.00851382035873,0.336701545426,-0.00745953314774,-0.352006841532,-0.0719346566719,9.38322879519
9058249,-0.00430950472438,0.021327968539,9.1934747586e-05,0.99976324071,0.0114936431372,0.340370197231,-0.00617848013449,-0.395078792419,-0.0797920794035,9.25523743092
9058330,-0.00379905412999,0.0241657297353,9.18343974089e-05,0.999700743353,0.0154099871115,0.344274148559,-0.0037070880807,-0.452525424866,-0.0710990037456,9.35441643438
9058410,-0.00532783570953,0.0266723410546,0.000142158446675,0.999630021648,0.0152056531274,0.346616519357,-0.00222425284842,-0.506386437781,-0.101077922755,9.48191916361
9058490,-0.00648292777572,0.0266267096532,0.000172683894009,0.999624409546,0.0121032223067,0.348447631896,0.000368208536797,-0.507099583616,-0.123374837149,9.51125502844
9058570,-0.00757306797191,0.0296796715564,0.000224871691687,0.999530747486,0.007261933384,0.351249059666,0.00575489592108,-0.558045126146,-0.142259649604,9.38735922922
9058650,-0.00807381229782,0.0329339312769,0.000266055392047,0.999424884091,0.0043571600304,0.354632676574,0.010263978536,-0.612554468266,-0.149999234587,9.28309422894
9058730,-0.00734361733658,0.0371591086983,0.00027307825187,0.99928234116,0.000911535772393,0.358791297026,0.0116923579206,-0.696256568899,-0.137404733623,9.34790675709
9058808,-0.00732970433808,0.0389437912082,0.000285670875845,0.999214478955,-0.00668980958142,0.361286469297,0.00956955512115,-0.741928846124,-0.139424839686,9.50267363433
9058892,-0.00787830915849,0.0401924247633,0.000316914287273,0.999160848313,-0.0138047571625,0.361932192537,0.00872156350293,-0.770050472958,-0.150692550296,9.55483233245
9058970,-0.00749285526508,0.0418222697962,0.000313651466659,0.99909692047,-0.019776485957,0.360191176173,0.00991552877784,-0.79338779354,-0.141890865871,9.45899544317
9059052,-0.00567732742135,0.0436735861813,0.000248190069384,0.999029691363,-0.0225081431107,0.358720876294,0.0106319079428,-0.822234236183,-0.106682334464,9.38569157865
9059130,-0.00388032563748,0.046927895698,0.000182297734931,0.998890725978,-0.0211673069728,0.361244216858,0.0106360453803,-0.877370487999,-0.0723891064889,9.31680956267
9059215,-0.00272756765735,0.0491874999314,0.000134325327878,0.998785828985,-0.0212141854129,0.364460981442,0.00978714771987,-0.923620348219,-0.0510949092058,9.35448900786
9059290,-0.00334501596206,0.0497601481231,0.000166655879474,0.998755581087,-0.0225193826614,0.364262589885,0.0109805693695,-0.939159835885,-0.0629786679356,9.40151753192
9059370,-0.0037130751073,0.0515178801636,0.000191545442603,0.998665151293,-0.0250052612563,0.356906823906,0.0151021428509,-0.975298587078,-0.0701089231735,9.42757986485
9059450,-0.00391621397522,0.0537364429014,0.000210749532517,0.99854745183,-0.0260710983518,0.350364914012,0.0175750869398,-1.01374124941,-0.0736688158181,9.39126308859
9059530,-0.00476745721049,0.0575090041884,0.000274629368215,0.998333566684,-0.0224536999945,0.344311317768,0.0173560931473,-1.07679001454,-0.0889728605358,9.31488522498
9059610,-0.00561311502937,0.0615356161542,0.000346067812001,0.998089044686,-0.0164520504269,0.338976399775,0.0129677962571,-1.14861693719,-0.104380211683,9.27911415379
9059690,-0.00640642286595,0.0630614203974,0.000404812201508,0.997989003512,-0.0124253706249,0.334498378795,0.00778067775428,-1.17495367916,-0.118891866023,9.25932745223
9059770,-0.00811634345281,0.0642805170759,0.000522821344968,0.997898725699,-0.0100093627437,0.325000525224,0.0021142662838,-1.21278237962,-0.152498555893,9.37339043862
9059850,-0.00927564879939,0.0655864534153,0.000609696049302,0.997803591765,-0.00855975801501,0.315044912467,-0.00298834084434,-1.24146510404,-0.174817351309,9.40112680224
9059930,-0.00846946354257,0.0680163849055,0.000577420334454,0.997648087332,-0.005135854809,0.303111883952,-0.00860404549,-1.28668689812,-0.159478208637,9.39119298198
9060010,-0.00709714474674,0.0692308229411,0.000492535421509,0.997575300967,-0.00563565325417,0.292546546351,-0.0145276086462,-1.3016095461,-0.132797050915,9.33160257263
9060090,-0.00695305897789,0.0703814671991,0.000490595042374,0.997495796163,-0.00721260250566,0.284930273607,-0.0185074366013,-1.31223907605,-0.128998784748,9.25179501648
9060172,-0.00701997095589,0.0710442990135,0.000500004761161,0.997448333289,-0.0102872223639,0.276954989468,-0.0179155029442,-1.31813795368,-0.12959286704,9.20534700378
9060250,-0.0075729439856,0.0727155977322,0.000552148802084,0.99732381276,-0.0134090644632,0.270041368678,-0.0154318924426,-1.35375958251,-0.140244383554,9.23326309485
9060330,-0.00744772203365,0.0741587492019,0.000553854305094,0.997218483883,-0.0169849299686,0.260359225404,-0.00925913546556,-1.3914131311,-0.13897384815,9.30244576584
9060418,-0.00621047677622,0.0755660090411,0.000470655797506,0.997121350057,-0.017427689026,0.248164588518,-0.0025756508491,-1.43052525171,-0.116903132132,9.38322027567
9060490,-0.00616098638634,0.0766502427524,0.000473643610559,0.997038895026,-0.0164162742761,0.238293666018,0.00313720016662,-1.45902034756,-0.116589391486,9.43240324206
9060570,-0.00631896548304,0.078904187992,0.000500162324026,0.996862051455,-0.0145323552417,0.231519732395,0.00954474120629,-1.49862290067,-0.119274189091,9.40660696355
9060649,-0.00685589129286,0.0807592347378,0.000555504195989,0.996709904724,-0.0134020038211,0.228306752344,0.0146663360145,-1.5269334157,-0.128785933132,9.35976515469
9060730,-0.00721879081036,0.0831916363088,0.00060264792481,0.996507239072,-0.0122981029073,0.228081724559,0.0185906730223,-1.56067913633,-0.134492979557,9.28114241435
9060810,-0.00743435568347,0.0850033204626,0.000634258229288,0.996352730504,-0.0133385226048,0.227521017827,0.0205195851656,-1.59385525768,-0.138396047744,9.27203657654
9060889,-0.00828551641552,0.0859065294005,0.000714445920273,0.996268491919,-0.0143884644848,0.225481833542,0.0203998622671,-1.61256382966,-0.154384838119,9.27974118298
9060969,-0.00889774647249,0.0875100819903,0.000781672607599,0.996123589042,-0.0145927395514,0.219575732295,0.0177738881593,-1.64413968695,-0.165893473672,9.28388510652
9061050,-0.00896625288268,0.0884028725528,0.000795790556352,0.996044128114,-0.0142896145298,0.211775170932,0.0144955434487,-1.66476114249,-0.167531411352,9.30313087226
9061130,-0.00863186086828,0.0889767193006,0.000771122231933,0.995996003893,-0.0153848097013,0.194749822331,0.00869732606923,-1.68120415864,-0.161810409311,9.33311368449
9061210,-0.00928436237025,0.0883159141618,0.000823209528738,0.99604890555,-0.0156162367427,0.175169431819,0.00138718508838,-1.67215577521,-0.17441895921,9.35373699365
9061290,-0.010225933935,0.0876016626925,0.000899313719113,0.996102690591,-0.0140523327217,0.159589986959,-0.00299889950013,-1.65786819902,-0.192039736122,9.35078808853
9061372,-0.00969964086727,0.0890615346703,0.000867352945915,0.995978517694,-0.00843139963302,0.143005588997,-0.00392779000739,-1.67802607322,-0.181303807493,9.30592311557
9061454,-0.00840167224399,0.0908971237039,0.000766889951041,0.995824551156,-0.00505883977981,0.129649429729,-0.0049108143732,-1.70903499085,-0.156666317699,9.28235601412
9061530,-0.00765389756402,0.0909202393478,0.000698809267928,0.995828519171,-0.00303530386789,0.118655903738,-0.00592631905416,-1.71088092982,-0.142841504487,9.29024240852
9061610,-0.00824913921995,0.0914532035246,0.000757611176579,0.995774918991,-0.00182118232073,0.109931337836,-0.00355579143249,-1.71294617386,-0.153221389508,9.24565369096
9061692,-0.00882821368708,0.0918826517113,0.000814637882684,0.995730373807,-0.00109270939244,0.10341952811,-0.0021334748595,-1.71131227829,-0.163040623012,9.192324822
9061770,-0.00960870326554,0.0929169848871,0.000896733068992,0.995627090135,-0.00320976600424,0.0935527814142,-0.0012800849157,-1.74121714236,-0.178508969754,9.24580049989
9061855,-0.0100998492525,0.0933039700102,0.000946534041151,0.995585991413,-0.00447999997131,0.084227212905,-0.000768050949419,-1.75676585915,-0.188508238298,9.28842039393
9061929,-0.0104629241521,0.0931421903433,0.000978849194418,0.995597359102,-0.00268799998279,0.0730979010005,0.0012419296762,-1.74670205577,-0.194507799424,9.25150366702
9062009,-0.0111191868254,0.0926654831566,0.00103488242025,0.995634672425,-0.00161279998967,0.0634404834276,0.00329929817449,-1.73779073175,-0.206726662076,9.25257738698
9062090,-0.0114892517491,0.0929161076542,0.00107224685426,0.995607073257,-0.000967679993804,0.0504093018389,0.00495940933493,-1.76189261776,-0.215973340996,9.35473576935
9062170,-0.0113296715264,0.0926633654661,0.00105445083252,0.995632476056,0.00112215224957,0.0362052419638,0.00552978596973,-1.75839723692,-0.213141642537,9.36240068158
9062250,-0.0111340359045,0.0927397755499,0.00103710263193,0.995627586848,0.00322743171851,0.02512866567,0.00587201195061,-1.75438464708,-0.208809001635,9.33324138551
9062330,-0.0107350589284,0.0924241714232,0.000996502394669,0.995661357104,0.00406490933842,0.0133744391561,0.00352320717037,-1.74287912687,-0.200702753276,9.30473248023
9062410,-0.0105037732913,0.0920802311614,0.000971370929395,0.995695715675,0.00243894560305,0.00419345294053,0.00211392430222,-1.73573639458,-0.196317844593,9.30223176719
9062490,-0.0091620095527,0.0912381050832,0.000839461373383,0.995786604181,0.00316612760768,-0.000889448727378,0.00126835458133,-1.72857771321,-0.172139084441,9.35220667506
9062570,-0.00844502938905,0.0899285859447,0.000762566833447,0.995912119316,0.00360243681046,-0.00521625991251,0.000761012748799,-1.70249526929,-0.158589509014,9.34891221671
9062650,-0.00875833300761,0.08905764549,0.00078313873684,0.995987657592,0.00216146208627,-0.00823803668505,0.000456607649279,-1.68445160127,-0.164346133387,9.34238655854
9062730,-0.00899208661787,0.0890792900512,0.000804238818949,0.995983622186,0.00555377786638,-0.00707127231834,0.00240241489688,-1.69230017341,-0.169476049173,9.38348215485
9062811,-0.00882628778385,0.0884765227795,0.000784024893887,0.996038848071,0.00971761764176,-0.004242763391,0.00442127936836,-1.68527772856,-0.16680791466,9.4098154538
9062890,-0.0101083848149,0.0868748101851,0.000881542469274,0.996167561605,0.0139186817528,-0.00552548846484,0.00265276762102,-1.65664340471,-0.191303832048,9.42393949201
9062970,-0.0104338560338,0.084906961125,0.000889166822536,0.996333855685,0.0194191506497,-0.00799788375498,0.00372011087992,-1.61791499546,-0.197382256504,9.42164000746
9063050,-0.0103512233524,0.0838774151355,0.000871351611164,0.996421934801,0.0231451220493,-0.00905563086761,0.00521189695819,-1.59755099191,-0.195762067526,9.4197814764
9063130,-0.00804595045733,0.0838196800036,0.00067681287947,0.996448225373,0.0224008744588,-0.0101159691966,0.00312713817491,-1.58389606878,-0.150976063758,9.34684030796
9063211,-0.00672843907397,0.0833706582275,0.000562927041468,0.996495732338,0.0189744954743,-0.0120292423785,-0.00110354752529,-1.56636572842,-0.125540982493,9.29469590108
9063290,-0.0062745956198,0.0809179323337,0.000509407897994,0.996700887017,0.0113846972846,-0.019136867148,-0.00449333906833,-1.52161044047,-0.117223118548,9.30865966834
9063370,-0.00668061095058,0.0793859750519,0.000532037936739,0.996821424999,0.00683081837075,-0.0323409333004,-0.002696003441,-1.49379958704,-0.124921668981,9.31823502952
9063453,-0.00712072793164,0.0784443483366,0.000560321835044,0.996892905726,0.00665263139122,-0.0457973437909,8.51581812491e-05,-1.47831017581,-0.133371521896,9.33427531336
9063530,-0.00630098265011,0.0783741047731,0.000495367540569,0.996903983305,0.0099512396952,-0.0606822310686,0.0017538551546,-1.48386057936,-0.118569559866,9.37813656741
9063610,-0.00548771754881,0.0781967050193,0.000430446019213,0.996922752773,0.0127817848005,-0.0700388534967,0.00403214352299,-1.48671198116,-0.103702878498,9.41810026931
9063690,-0.00483860743447,0.0781632097378,0.000379366211645,0.99692876205,0.0140544218022,-0.0718216164003,0.00752756685134,-1.48985934324,-0.0916704075186,9.44231791061
9063770,-0.00556208324915,0.0785647860725,0.000438345646379,0.996893397246,0.011838173573,-0.0648031629748,0.00749637054104,-1.49964862596,-0.10551989954,9.45469371389
9063849,-0.00596494190182,0.0792832303351,0.000474421801199,0.996834170652,0.00710290414382,-0.0563351903048,0.00449782232462,-1.5160566829,-0.113350754422,9.46978064118
9063928,-0.00586427958544,0.0788110950918,0.000463620402498,0.996872211756,0.00426174248629,-0.0469975060882,0.00269869339477,-1.50890268528,-0.111584922868,9.4826635202
9064009,-0.00554144608721,0.0772028186218,0.000429102600904,0.99699991627,0.00255704549178,-0.0422462756812,0.00161921603686,-1.47851348861,-0.105497600449,9.48895672662
9064090,-0.00524070277672,0.0759401990759,0.000399138102723,0.997098521655,0.00153422729507,-0.0432267479901,0.000971529622119,-1.45285794546,-0.0996904255039,9.48219816317
9064170,-0.00523681271322,0.0755904346128,0.000396994259946,0.997125119723,0.00092053637704,-0.0463691717442,0.00271136808058,-1.44871736737,-0.0997974230269,9.49969084004
9064255,-0.00523043746723,0.075298858145,0.000394972741173,0.99714721505,0.00268077213353,-0.0482546259967,0.00460665127858,-1.44575418019,-0.0998616215408,9.51760847131
9064332,-0.00490318770302,0.0755467356606,0.000371485938791,0.997130137685,0.00416260364889,-0.0472574482409,0.004466751013,-1.44780699054,-0.0934357961667,9.49938920998
9064410,-0.00530872130453,0.0747871437757,0.000398144757614,0.997185309802,0.00420032243518,-0.0445306912801,0.0026800506078,-1.43180042479,-0.101072468911,9.49133069518
