timestamp,orien_x,orien_y,orien_z,orien_w,ang_v_x,ang_v_y,ang_v_z,lin_acc_x,lin_acc_y,lin_acc_z
3926819,-0.00638546585801,0.0890956327366,0.000571200527225,0.996002443663,-0.00467107367957,0.0259966253716,0.00124763470523,-1.70179329984,-0.12100591418,9.43530488123
3926899,-0.00673561622616,0.089719646752,0.000606778140551,0.995944098974,-0.00620816469944,0.0236860863907,0.000748580823141,-1.71108489836,-0.127430766526,9.41912185452
3926981,-0.0073258610192,0.0903666062116,0.000664751040355,0.995881401748,-0.00585334912697,0.0201713126949,0.000449148493885,-1.71905405913,-0.138228862748,9.39337088737
3927060,-0.00883736734828,0.0903670665609,0.000801919699306,0.995868992963,-0.00351200947618,0.0150826180472,0.000269489096331,-1.71401932879,-0.166255535422,9.36523103828
3927140,-0.0105427059697,0.0902394927583,0.00095531980183,0.99586383239,-0.00210720568571,0.0107523310742,0.00229014376511,-1.71004080992,-0.198155009486,9.35624799431
3927219,-0.0111518844606,0.090150173692,0.00100951844455,0.995865233116,0.00299257720319,0.0064513986445,0.00477960675076,-1.71052674059,-0.209872668777,9.36809641987
3927310,-0.0108154312451,0.0909543748879,0.000987863927391,0.995795838644,0.006478136998,0.0038708391867,0.00627328454215,-1.71752206364,-0.202538054391,9.32133593786
3927379,-0.010626278418,0.0917944839207,0.000979625765967,0.99572079182,0.00558964244465,0.00402526375787,0.00376397072529,-1.73033838345,-0.198616126092,9.3028564553
3927466,-0.0104908505275,0.0924683512782,0.000974300231621,0.995659880083,-0.00132880520929,0.00241515825472,-0.00327558836383,-1.75335106596,-0.197220649776,9.35617279041
3927539,-0.0101391378653,0.0932564655121,0.000949728425124,0.995590039896,-0.00845970423189,0.00144909495283,-0.00835070394023,-1.77769316277,-0.191594960667,9.40396432244
3927621,-0.00937743525476,0.0938231074009,0.00088375785097,0.995544327088,-0.0199749746903,-0.00296175358146,-0.0126728434705,-1.78870711836,-0.177206219564,9.40390882174
3927699,-0.00886730294434,0.0946155323477,0.000842799064541,0.99547403867,-0.0294382773341,-0.00773671300934,-0.0148404371271,-1.80201925637,-0.167375874072,9.39262277351
3927779,-0.00918774441075,0.0948061394701,0.000875033381009,0.995452970053,-0.033839188736,-0.0178384197109,-0.0110327125836,-1.81096421984,-0.17392751541,9.41960938798
3927859,-0.00993109607419,0.095205314444,0.000949855177855,0.995407664833,-0.0300943846552,-0.0298591045923,-0.000234276628221,-1.81561293742,-0.18767472702,9.40276137376
3927941,-0.0103443483722,0.0958117156835,0.000995744732271,0.995345225581,-0.0257190518995,-0.0379228956441,0.00879892531377,-1.8203175293,-0.194725953155,9.36559808646
3928019,-0.0112156401422,0.0959405353619,0.00108109046478,0.995323291365,-0.0192626416928,-0.0436125503981,0.0167729868477,-1.83559013306,-0.212603638299,9.43068847468
3928101,-0.0119110270929,0.0962794443879,0.0011522227895,0.995282406357,-0.0132603452616,-0.0470263432505,0.0219831138296,-1.84954209863,-0.22668213171,9.46758792612
3928179,-0.0128696513366,0.0955103239023,0.0012349338323,0.995344475567,-0.00795620715693,-0.0469461686546,0.0225550496499,-1.83109821938,-0.244466614231,9.45022326959
3928261,-0.0135656970432,0.0948409611092,0.00129253046794,0.995399162811,-0.00307096404831,-0.0468980638971,0.0177899304046,-1.81189160619,-0.256813244906,9.41849608089
3928340,-0.0140980142928,0.0939412825445,0.00133040292037,0.995477027085,-0.00184257842899,-0.048146271227,0.0106739582427,-1.78935431064,-0.266136584639,9.39251658286
3928420,-0.0148500048596,0.0916470608178,0.00136686431511,0.995679880926,-0.00110554705739,-0.0552805465468,0.00299885445395,-1.7420736899,-0.279870874123,9.37884424537
3928499,-0.0156362392772,0.0897739851259,0.00140959365336,0.995838416944,-0.000663328234435,-0.0642437024148,-0.00288327800371,-1.70388909065,-0.29433637213,9.36896490171
3928583,-0.0157363732806,0.0885587667084,0.00139926691699,0.995945657879,-0.00380351743236,-0.0777097071034,-0.00811531772416,-1.6809783311,-0.296311906286,9.37285352233
3928659,-0.0151372596471,0.0876310410607,0.00133177150848,0.996037092882,-0.00866746138134,-0.0908975906541,-0.0104031614335,-1.66316173255,-0.285047378147,9.3744684342
3928741,-0.0153128314126,0.0870446275141,0.00133813741815,0.996085819296,-0.0120115178122,-0.0996617009074,-0.0104987974747,-1.65319003391,-0.288583728402,9.38238056613
3928819,-0.0158721638854,0.0858915852391,0.00136851700543,0.996177111341,-0.0135922616093,-0.104494476998,-0.00800203873068,-1.64122151058,-0.301000605693,9.44195506331
3928901,-0.0161496187799,0.0852322675621,0.00138167857757,0.996229261437,-0.014115017826,-0.106542762529,-0.00480122323841,-1.63499807725,-0.307493051404,9.48033338345
3928979,-0.0157910157232,0.0851908154489,0.0013503286342,0.996238598629,-0.0110231510644,-0.105643283541,0.000950476610113,-1.63389763907,-0.30061461136,9.47893951859
3929060,-0.0146123672148,0.0845385746296,0.00123988102317,0.996312285791,-0.0036340602084,-0.102549455779,0.00738132694946,-1.61623854438,-0.277333934052,9.45128814109
3929140,-0.0142460185617,0.0838156151893,0.00119837847144,0.99637872192,0.00292784461251,-0.099841778999,0.0112398371531,-1.59893932292,-0.26982987215,9.43278195326
3929220,-0.0134946779842,0.0820423720388,0.00111098288364,0.996536857609,0.00771636762797,-0.0973657928081,0.0122778730908,-1.5670119751,-0.255990048534,9.44897213948
3929299,-0.0135512206389,0.0810390432266,0.00110190438248,0.996618193542,0.0101637913758,-0.096305891155,0.0116236244691,-1.55168628906,-0.257741801337,9.47472740234
3929386,-0.012979136424,0.0788960038628,0.00102729156308,0.996797826675,0.011206555563,-0.0956699501631,0.00910262498879,-1.51280277686,-0.24730068505,9.49353244238
3929459,-0.0138529792021,0.0777151270233,0.00107995682896,0.996878772817,0.0122579041368,-0.0931599352607,0.00546157499327,-1.48085354355,-0.262344410054,9.43634129893
3929551,-0.0140398498916,0.076669851393,0.00107971868537,0.996957095722,0.0133144033426,-0.0899511660734,0.000722804627191,-1.45665618009,-0.265145720739,9.41088515899
3929619,-0.0149606903825,0.0748398083123,0.00112293112221,0.997082704624,0.0160767531733,-0.088025904561,-0.00297183771538,-1.42681487138,-0.283585918772,9.44684739056
3929702,-0.0146001776638,0.0739992974001,0.0010834899431,0.99715082352,0.0190112332562,-0.0885735078994,-0.004337242998,-1.41274080882,-0.277172365472,9.46196038502
3929780,-0.0146501912727,0.0735770412925,0.00108096460122,0.997181338777,0.0211976113673,-0.0893277599639,-0.00558217622903,-1.40333869061,-0.277873216646,9.45378992974
3929861,-0.0139304940025,0.0736820371914,0.00102932580544,0.997183954554,0.0250635786028,-0.0889289310797,-0.00632913616766,-1.40631654567,-0.264407357722,9.46061924471
3929939,-0.0133113101294,0.0726917528533,0.000970276026811,0.997265148621,0.0290859191899,-0.0895410138721,-0.00550024194644,-1.39158326724,-0.253454800376,9.49153189229
3930026,-0.0116084575054,0.0726939749932,0.000846161083493,0.997286374982,0.0310736334807,-0.0899082635475,-0.00330014516786,-1.39303836733,-0.221265308204,9.50217861535
3930099,-0.0106398687806,0.0724319274525,0.000772740002207,0.997316304866,0.0267322912562,-0.0845946425538,-0.00198008710072,-1.37882795692,-0.201472772569,9.44033190188
3930185,-0.00995371333426,0.0724471970079,0.000723054742118,0.997322317222,0.0211476554913,-0.0788523295888,-0.00118805226043,-1.37676605516,-0.188160730192,9.42453226857
3930259,-0.00916038642691,0.071679207866,0.000658330477738,0.997385454617,0.0126885932948,-0.0741298716254,0.00226699907398,-1.37193761161,-0.174427420781,9.49406114337
3930347,-0.00860765998305,0.0719441235063,0.000620902702517,0.997371327923,0.00761315597686,-0.06916794654,0.00604279012047,-1.37813851179,-0.16403265364,9.50154138451
3930419,-0.00806249799649,0.0720366833242,0.000582327587162,0.997369226153,0.00456789358612,-0.0572513001981,0.0104367150557,-1.37635238808,-0.153246810202,9.4770596891
3930501,-0.00804339480273,0.0718893498974,0.000579753369999,0.997380012361,0.00274073615167,-0.0475471720242,0.0130730700168,-1.37025289037,-0.152521388123,9.45470922655
3930579,-0.00796163515193,0.0729790169329,0.000582604448863,0.997301527135,0.00547565224416,-0.040021934874,0.0155062631164,-1.39268998984,-0.151128454212,9.46380444462
3930659,-0.00769824023278,0.0735738493332,0.000567945395596,0.997259897534,0.00754229196112,-0.0329526522151,0.0169661789762,-1.39585718238,-0.145264870379,9.40749117263
3930740,-0.00686809502261,0.0737347331089,0.000507811547952,0.997254110311,0.00835658572983,-0.0291367726812,0.0169907483691,-1.39823633824,-0.129536291612,9.40291246969
3930820,-0.00666358386222,0.0737969611932,0.000493107841351,0.997250902237,0.00756809180667,-0.0281243151453,0.0118972092673,-1.40660701656,-0.126324068668,9.45116174329
3930899,-0.00665762033823,0.0736622189997,0.00049176207062,0.997260904555,0.00666930539131,-0.0275168406237,0.00713832556038,-1.40779870091,-0.126551516396,9.47675942512
3930979,-0.0073973825333,0.073421127832,0.000544609076287,0.997273443004,0.00400158323479,-0.0267266658493,0.00428299533623,-1.40276762753,-0.140574354662,9.47416152177
3931059,-0.00666998336893,0.0737288099471,0.000493123115137,0.997255900326,0.00240094994087,-0.0245498007388,0.00256979720174,-1.40836810947,-0.126721982182,9.47188451927
3931139,-0.00653159540175,0.0738994564192,0.000484015203716,0.997244189921,0.00144056996452,-0.0232436816725,-0.000160881924806,-1.40693999532,-0.123677802346,9.44011195668
3931219,-0.00589336538487,0.0740989537244,0.00043790372051,0.997233383688,0.000864341978714,-0.0245884605401,-9.65291548837e-05,-1.40728022766,-0.11131680714,9.41673885613
3931300,-0.00603290479141,0.0743068057862,0.000449536910835,0.997217077968,0.000518605187228,-0.0270980881064,-5.79174929302e-05,-1.41131508972,-0.113955856989,9.4168407856
3931379,-0.00720034471282,0.0754628255215,0.000544926398852,0.997122469938,0.000311163112337,-0.031158005015,-3.47504957581e-05,-1.42977715808,-0.135650580844,9.39104456536
3931459,-0.00842059803485,0.0750018688302,0.000633367181738,0.997147638039,0.000186697867402,-0.0348710253446,-2.08502974549e-05,-1.4260103488,-0.159201902461,9.42440854708
3931539,-0.00909186239861,0.0747011756129,0.000681104228114,0.997164283605,0.000112018720441,-0.0375245276038,-1.25101784729e-05,-1.42422910357,-0.172375014768,9.45089128059
3931622,-0.0086568090235,0.0752789576181,0.000653554711123,0.99712472192,6.72112322648e-05,-0.036988178652,-7.50610708376e-06,-1.43632846556,-0.164237731029,9.45696469389
3931699,-0.00890138461615,0.0769363833399,0.000686903776527,0.996996031303,4.03267393589e-05,-0.0353892990965,-4.50366425025e-06,-1.47088198168,-0.169171587592,9.47210090984
3931779,-0.00949741069343,0.0774598853843,0.000737919027021,0.996949959036,2.41960436153e-05,-0.0344299713632,-2.70219855015e-06,-1.47916424272,-0.180272187174,9.45963482447
3931859,-0.0106495497432,0.0769569556423,0.000822041794724,0.996977200499,1.45176261692e-05,-0.0334286846618,-1.62131913009e-06,-1.46857128855,-0.202016017383,9.45383111441
3931941,-0.0106834645976,0.0767568726851,0.00082250320648,0.996992261539,0.00171147082155,-0.0315508424566,-9.72791478055e-07,-1.46437029754,-0.202612466875,9.45178540937
3932019,-0.0111024720082,0.0767251902185,0.000854410972261,0.996990095379,0.00272964273878,-0.0308498271949,-0.00170334392073,-1.46927172809,-0.211350042381,9.48718927174
3932100,-0.0118212185302,0.0770976273626,0.00091417334396,0.996953047508,0.00163778564327,-0.0321319782837,-0.00400183678268,-1.48083171239,-0.225690553993,9.51441709332
3932181,-0.0115112840372,0.0762144837404,0.00087994475086,0.997024607773,-0.00114577892135,-0.0388609297975,-0.00452955237692,-1.46310742587,-0.219690230833,9.51160017298
3932261,-0.0110947101958,0.0752035966601,0.000836783657203,0.99710612587,-0.00239022759866,-0.0463038211974,-0.004420491672,-1.43068561885,-0.209865112621,9.42826774417
3932339,-0.0106722521493,0.0749145338809,0.000801805953616,0.997132525171,-0.00313689680504,-0.0503438659759,-0.00563212543343,-1.41793629929,-0.200857579536,9.38114132888
3932419,-0.0106430051778,0.0738143209396,0.000787800304541,0.99721489752,-0.00571334863618,-0.0527678928431,-0.0084875559976,-1.40310410257,-0.201199143669,9.42373384884
3932500,-0.0103726779199,0.0733159895509,0.000762576779917,0.997254527042,-0.00896197998072,-0.0546479990248,-0.00934943421318,-1.40066912902,-0.19709451916,9.47251311692
3932580,-0.0099959528351,0.0731077854019,0.00073277976584,0.997273681431,-0.0138909892177,-0.0549246826109,-0.00560966052791,-1.38891307776,-0.188885660471,9.42037782132
3932659,-0.00928663502728,0.0733565232276,0.000683105389794,0.997262308661,-0.0189768450672,-0.0538136225782,-0.00336579631675,-1.3811411865,-0.173904698284,9.33570594694
3932747,-0.00850759162569,0.074574033714,0.000636240267594,0.997178985729,-0.0233054287612,-0.0518699163742,-0.000316717544199,-1.40089890868,-0.158930616822,9.31243614141
3932819,-0.00877899182695,0.0762498354017,0.000671377332919,0.997049868941,-0.0267539591006,-0.0519807628361,0.00321548996518,-1.45010308788,-0.165987319068,9.42393042508
3932901,-0.00958270642954,0.0771591504711,0.000741638828085,0.996972460607,-0.0283973872428,-0.0546014110821,0.00618619459373,-1.47579487275,-0.182192348716,9.47550410466
3932979,-0.00945834759449,0.0759073112693,0.000720067707971,0.997069757469,-0.0268293037593,-0.0600050105828,0.00839430743232,-1.44284707013,-0.178747257374,9.41953879214
3933059,-0.00831699322412,0.075213514517,0.000627349170705,0.997132569567,-0.0207801729317,-0.0615444100374,0.00801641488963,-1.43265519521,-0.157526589288,9.44126566298
3933140,-0.00872740198126,0.0750942449395,0.000657258715484,0.997138031991,-0.0145965540663,-0.0624680497102,0.00736398930255,-1.43731397772,-0.166102583211,9.48710234823
3933220,-0.0090508554347,0.0756198075243,0.000686417708287,0.997095409455,-0.00875793243978,-0.0642993036982,0.00441839358153,-1.44705243204,-0.17220586023,9.48371915796
3933300,-0.00964254193252,0.0760141144136,0.000735130683532,0.997059845435,-0.00695751970972,-0.0658237461525,0.000522585841607,-1.44762826098,-0.182571591089,9.43715709292
3933384,-0.0102855105515,0.0752140812649,0.000775854295551,0.997114059826,-0.00758003231753,-0.0709953122397,-0.00777455966281,-1.4412699937,-0.195973634585,9.49708705482
3933459,-0.0108187149418,0.0749788310733,0.00081351255002,0.99712610461,-0.00710215975929,-0.0775037723837,-0.0127528469655,-1.43865213416,-0.206409062343,9.50982127586
3933542,-0.0109936059723,0.0761225150843,0.000839347493977,0.997037511241,-0.00724112628581,-0.0809831584086,-0.0148884392241,-1.45120720823,-0.208360756009,9.44611459901
3933619,-0.0119909069511,0.0750396680078,0.000902403387325,0.997108044318,-0.00689881614026,-0.0822194099007,-0.014041344272,-1.43479823607,-0.227967124992,9.47588592005
3933709,-0.0126657259633,0.0740183387277,0.000940150978091,0.997176003038,-0.00413928968415,-0.0825354707345,-0.0118303270549,-1.42710763427,-0.24284340854,9.5569556365
3933779,-0.0125752101589,0.0720640661672,0.000908655688844,0.997320314042,-0.00248357381049,-0.0814480370503,-0.00709819623295,-1.38562256762,-0.240516430866,9.5349685174
3933865,-0.0111868267731,0.0723005415992,0.000810987223959,0.99731982277,-0.0014901442863,-0.0799441967169,-0.00255615749392,-1.37940630058,-0.212305185668,9.4614423641
3933940,-0.0116616600701,0.0719410456455,0.000841189284143,0.997340355163,-0.000894086571777,-0.0807446527627,-0.00153369449635,-1.36753625472,-0.220517555981,9.4273823191
3934025,-0.0114852919115,0.0707779655338,0.0008150037096,0.997425638047,-0.00436766249622,-0.0871845872507,-0.000920216697811,-1.34892205923,-0.217783532856,9.45435148496
3934099,-0.0106400547785,0.0679563738299,0.000724776323426,0.997631292206,-0.00943163848113,-0.0914742380049,-0.00310627038746,-1.29322139105,-0.201538488854,9.44635154772
3934181,-0.0106925200941,0.065962617316,0.00070688681905,0.99776455311,-0.018855374994,-0.0923452682116,-0.00654635290856,-1.25070302384,-0.201847109426,9.41569420744
3934259,-0.0112740664706,0.0663591007753,0.00074983767302,0.997731829157,-0.0257866870861,-0.0924421962742,-0.00392781174513,-1.25535894443,-0.212327348907,9.39322966045
3934341,-0.0106590456198,0.0673042727306,0.000719070938256,0.997675299161,-0.0290940942185,-0.0925003531117,-0.00235668704708,-1.27132060592,-0.200419559979,9.37759615076
3934420,-0.0103991617834,0.0672018774751,0.000700464801787,0.997684957513,-0.0306528484364,-0.0912581770298,0.00114012814052,-1.2717996365,-0.195908508448,9.39574936404
3934502,-0.0113839304181,0.0652904058815,0.000744899404669,0.997801089473,-0.0311624109057,-0.0909385614422,0.00281252719162,-1.23976533244,-0.215228532803,9.43034388844
3934579,-0.0124147303133,0.0645755187552,0.000803426850262,0.997835272655,-0.0250827974653,-0.0933009324583,0.00679579705252,-1.22988213647,-0.235439673393,9.4594803089
3934668,-0.0131315221415,0.0657066903393,0.000864772697909,0.99775219676,-0.0171781287865,-0.0947183550681,0.0108885192149,-1.25268263882,-0.249242298909,9.46642767386
3934739,-0.0124040907415,0.0694584195887,0.000863721491614,0.99750735359,-0.00860411702606,-0.0964201887568,0.0124927723894,-1.32789392289,-0.235976059277,9.48591898347
3934828,-0.0123249101004,0.0698458323236,0.000863017299945,0.997481283784,-0.0021826397854,-0.0991440492159,0.00749566343365,-1.33543172727,-0.23448065998,9.48612160126
3934899,-0.0133069400471,0.0695931605731,0.000928405778486,0.997486268282,0.00252162668192,-0.099501295307,0.00109187756849,-1.3258286201,-0.252258193351,9.4520060882
3934987,-0.0144737646046,0.0684256322115,0.000992808149561,0.9975507292,0.008749707054,-0.0958844324085,-0.0061559144423,-1.30474386518,-0.274656301509,9.46194314144
3935059,-0.0151708908698,0.0695934392731,0.00105848353782,0.997459511405,0.0167434558919,-0.0941400047308,-0.0122073498946,-1.33925878493,-0.290489368064,9.54643518785
3935143,-0.0164992992484,0.0707483446838,0.00117039140218,0.997357044911,0.0232424654404,-0.0947961083701,-0.0175409714119,-1.36427729976,-0.316509199451,9.56265391178
3935219,-0.0171536772973,0.0689766207822,0.0011862036887,0.997470084795,0.0309730817228,-0.100298051291,-0.0203154542607,-1.31895452683,-0.3263750143,9.48547562588
3935300,-0.016831827358,0.0666688768539,0.00112482199624,0.997632540178,0.0368885216765,-0.107856117658,-0.0202773837242,-1.26326986332,-0.317450452916,9.4042133101
3935379,-0.0158569416373,0.0666483592505,0.00105932861344,0.99764995436,0.0374579552185,-0.118350618339,-0.0189774712179,-1.25619528347,-0.297491085958,9.35521650046
3935461,-0.0154487516839,0.068103876619,0.00105469538005,0.997558061307,0.0339684047906,-0.125498698871,-0.0181975237141,-1.28594819913,-0.290303869104,9.36963230506
3935539,-0.0154902938997,0.069550120821,0.00108009785248,0.997457600541,0.0254893236119,-0.132341687558,-0.016026794966,-1.32510834331,-0.293652984304,9.45130493846
3935621,-0.0147233555459,0.0665192931043,0.000981668580256,0.997676020947,0.0199761848432,-0.139853001263,-0.0125959074099,-1.2691169347,-0.279621302301,9.47085983807
3935699,-0.0138873385191,0.0644098315271,0.000896429529462,0.997826493858,0.0175196817049,-0.143508409362,-0.00755754444591,-1.23647977019,-0.265456209115,9.53406811354
3935781,-0.0133261174867,0.0640609621639,0.000855517589506,0.99785664091,0.0181742301293,-0.139741993362,-0.00240607636024,-1.23006558062,-0.254802371709,9.53727715474
3935859,-0.0128570012757,0.0641375660065,0.000826386972063,0.997857899317,0.0202697194297,-0.136205073577,0.00196187467555,-1.22765358787,-0.245058186942,9.50735969739
3935941,-0.01393851195,0.0620233224045,0.000866265282814,0.997976991191,0.0228040831944,-0.137488442198,0.00585971548141,-1.18742032533,-0.265787314509,9.51239355891
3936019,-0.0133069575135,0.0585179996273,0.000780102782994,0.998197355256,0.0238990113917,-0.1412382938,0.00649565971908,-1.12114241859,-0.254043354281,9.52594836313
3936101,-0.012359561964,0.0569752766562,0.000705389446955,0.998298833769,0.025407348433,-0.143913894823,0.00645153620022,-1.08927654002,-0.235504810176,9.50894212823
3936179,-0.0117447656225,0.0574160891633,0.00067549967995,0.998281020999,0.0258866605964,-0.148073395806,0.00599937202744,-1.09242308832,-0.222705742551,9.46282536239
3936261,-0.0107800844298,0.0575331090521,0.000621277137691,0.998285202313,0.0257485578329,-0.15184616658,0.00359962321647,-1.08736783248,-0.203055293675,9.40019995864
3936339,-0.0103121253656,0.0553616918503,0.000571804189381,0.998412948727,0.0252400061134,-0.152407068799,-0.000394366438893,-1.04937933474,-0.19485632684,9.43133830404
3936420,-0.00894806062826,0.0537965761199,0.000482092519834,0.998511706589,0.02152935459,-0.148061019454,-0.00406783041649,-1.0138969673,-0.168149711631,9.38058946314
3936500,-0.0081627569888,0.0532803205592,0.000435547535583,0.99854613671,0.0180258934915,-0.144602009724,-0.00627190880305,-1.00050841231,-0.152844003004,9.34750653677
3936580,-0.00799636248228,0.0541476531051,0.000433634354646,0.998500827146,0.0150724367095,-0.14380367407,-0.0063172856506,-1.02120569924,-0.150364342476,9.38679356195
3936659,-0.00675901797721,0.0544878819362,0.000368840974815,0.998491487372,0.0133003626403,-0.142898982617,-0.00634451175914,-1.03338465124,-0.12780757155,9.43933561715
3936747,-0.00611623285092,0.0522757733684,0.000320174594557,0.998613905723,0.0126628082603,-0.139802027376,-0.00380670705548,-0.997835812714,-0.116428290489,9.50390083318
3936819,-0.0046458230452,0.0526643006458,0.000245011686154,0.998601435877,0.0114288955093,-0.139220924415,-0.00228402423329,-1.00906765218,-0.0887711674085,9.53976692081
3936909,-0.00452895642466,0.0533394616245,0.00024191897585,0.998566137951,0.0106885478588,-0.140575022885,0.00203510595172,-1.02777776416,-0.0870209438533,9.59265061513
3936979,-0.00451348926153,0.0526423059152,0.000237932826024,0.998603204196,0.0123727895757,-0.143090242213,0.00632934430858,-1.01386471392,-0.0866890702182,9.58918606732
3937060,-0.00424218620502,0.0515390650378,0.000218931252746,0.998661945155,0.0142347147288,-0.143747993687,0.00848019726123,-0.99522181663,-0.0817015427169,9.61607717872
3937140,-0.00373346014189,0.0495398903457,0.000185183880225,0.998765150697,0.0145004896978,-0.137757293649,0.00508811835674,-0.95458739784,-0.0717658414016,9.59869302232
3937221,-0.00320347448853,0.0483598656296,0.00015510186718,0.998824828031,0.00870029381866,-0.128628902827,0.00305287101404,-0.926854864241,-0.0612554374582,9.54899762125
3937299,-0.00321070958673,0.0482768989493,0.000155184851931,0.998828818311,0.00351741604535,-0.121449108088,0.00183172260843,-0.921946932216,-0.0611741194085,9.51487081763
3937380,-0.00386318595757,0.0493491387758,0.000190878898471,0.998774099515,-0.00640335160203,-0.116715541184,-0.00358355711103,-0.936001004789,-0.0730963368795,9.44842606357
3937460,-0.00452074281969,0.0502954835414,0.000227663416425,0.998724123764,-0.0153356426207,-0.116003851348,-0.00896117525001,-0.951137212981,-0.0852774908484,9.41909369845
3937541,-0.00426416270546,0.04865759221,0.000207731840032,0.998806393894,-0.0219720874163,-0.12238787843,-0.0117620560719,-0.924784753326,-0.080854595095,9.46877134602
3937619,-0.00360173265705,0.0471263141977,0.000169926289359,0.998882430097,-0.0238255039863,-0.128346744987,-0.0104627541349,-0.899875311224,-0.0686240510023,9.51533734619
3937699,-0.00345142733427,0.0467936758189,0.000161683049476,0.998898600165,-0.023660483744,-0.131922064921,-0.00798041272676,-0.894506452603,-0.065834707701,9.5262781145
3937779,-0.00445801390725,0.0474815681491,0.000211914619555,0.998862143587,-0.0231357815371,-0.133215876758,-0.00478824763606,-0.904692666728,-0.0847512359975,9.49405650859
3937868,-0.00501164015396,0.0473975504825,0.000237809737073,0.998863503747,-0.02196958009,-0.133992163861,-0.00287294858163,-0.904100630554,-0.0953828924774,9.5046510658
3937939,-0.00578165103009,0.0464215788213,0.000268687536363,0.998905169342,-0.0191414089145,-0.136160696368,-0.00172376914898,-0.890098459387,-0.110620432508,9.55530053084
3938027,-0.0059479016376,0.0467052682085,0.000278106770975,0.998890966545,-0.0174445062092,-0.140441646302,-0.00103426148939,-0.897259467478,-0.114016872542,9.57324036123
3938101,-0.00600953316996,0.0470396835505,0.00028300494637,0.998874903875,-0.0168520546474,-0.145564356632,-0.00232331713948,-0.899161870672,-0.114618215566,9.52486747845
3938180,-0.00765888763024,0.0465232578546,0.000356713146947,0.998887781823,-0.015219513526,-0.150766433137,-0.00139399028369,-0.87923433798,-0.144427701801,9.41731393434
3938259,-0.0082066523052,0.045608291967,0.000374693958126,0.998925619937,-0.0129629186688,-0.153461988979,-0.000836394170213,-0.861292314214,-0.154651948229,9.41120032838
3938339,-0.00971534293247,0.0450934091607,0.00043856481454,0.998935435463,-0.0094805114471,-0.154653632422,-0.00348166693236,-0.853639562112,-0.183531411857,9.43410780323
3938419,-0.0112671150045,0.04327058481,0.000488022807522,0.998999734957,-0.00568830686826,-0.155368618488,-0.0067715908355,-0.827260675744,-0.214984879829,9.52925514458
3938507,-0.0117278109686,0.0427409151949,0.000501750480598,0.999017227511,-0.00341298412096,-0.155797610128,-0.00831985511592,-0.82244667156,-0.225237834636,9.59161079305
3938579,-0.0118821172951,0.0432303177683,0.000514184801727,0.998994339588,0.00093203995766,-0.156480695173,-0.00839743356125,-0.83392347901,-0.228755985694,9.61465897217
3938660,-0.0125119199731,0.0441126928412,0.000552515698664,0.998948055164,0.00524181465068,-0.159018996508,-0.00801829056698,-0.857090134769,-0.242598464463,9.68259683716
3938740,-0.0137298073253,0.0428665645964,0.000589146898086,0.998986287662,0.0112331999582,-0.161393357431,-0.0069394246475,-0.834358842824,-0.266705682682,9.70061464038
3938822,-0.0139780688375,0.0412925852755,0.000577739944036,0.999049149046,0.01695648145,-0.156858313125,-0.0041636547885,-0.793186748566,-0.268001904482,9.57519524785
3938899,-0.0140522874279,0.0392666631499,0.000552267019639,0.999129800068,0.0203904503451,-0.151583146172,-0.0024981928731,-0.747653937567,-0.2671036964,9.49347926785
3938981,-0.0140365325858,0.0384188454796,0.000539719127822,0.99916298809,0.0198966913134,-0.148418046001,-0.00405305609263,-0.730150477775,-0.266325351385,9.47677140226
3939059,-0.0143460245968,0.0391499995599,0.000562135803342,0.999130198281,0.0170462955256,-0.147370366021,-0.0066887342702,-0.745745199995,-0.27280152919,9.49739246416
3939140,-0.0137118156076,0.0395279977428,0.000542475699718,0.999124231128,0.0102277773153,-0.148018828217,-0.00912152129966,-0.745764646852,-0.25825188309,9.40681442991
3939220,-0.0139000490485,0.038225010397,0.000531769646681,0.999172334704,0.00230545583605,-0.153516186273,-0.0101555034559,-0.721594878199,-0.261971944063,9.4135197517
3939307,-0.0133422877516,0.0364595603083,0.000486821037635,0.999245939109,-0.00244793705153,-0.160645811659,-0.0103502026881,-0.692248966715,-0.252951232844,9.47021538129
3939379,-0.0137556999061,0.0355416708327,0.000489256050839,0.999273401519,-0.00444859266115,-0.166200657075,-0.00621012161289,-0.680148083642,-0.262861696738,9.54565244777
3939461,-0.0141725161258,0.0346972754022,0.000492093513173,0.999297251427,-0.00607467608839,-0.166128043833,-0.00372607296773,-0.665465528652,-0.2714415969,9.56745151139
3939539,-0.014303476986,0.034232975193,0.000489987978631,0.999311399849,-0.00364480565303,-0.161401885212,0.000318496588132,-0.654261793998,-0.272998234507,9.53432285752
3939620,-0.0139266219921,0.0355352411265,0.000495246776826,0.999271259753,-5.84330845095e-05,-0.158140499978,0.00274523832165,-0.677945914289,-0.265313091095,9.51636102652
3939700,-0.0128445413174,0.0357295056986,0.00045926031025,0.999278844598,0.00337046064099,-0.157460739022,0.00164714299299,-0.683537260488,-0.245379114423,9.54317289399
3939782,-0.0119592717599,0.0333591515297,0.000399201939714,0.999371794412,0.00202227638459,-0.162161163185,-0.0024172346959,-0.638529194672,-0.228630325099,9.55111972882
3939859,-0.0103750556289,0.0300366239294,0.000311789127753,0.999494903554,-0.00134077453802,-0.16668417793,-0.00655862155509,-0.575850750445,-0.198709177725,9.57025303969
3939940,-0.00953660050248,0.0274563177705,0.000261950613649,0.999577478361,-0.00718981564474,-0.168546606653,-0.010320523855,-0.528427457103,-0.183390111127,9.60998460579
3940019,-0.00814660320831,0.0278918139094,0.000227319532083,0.999577724791,-0.0132533806775,-0.166258543396,-0.0104492149276,-0.53947780849,-0.157439259548,9.65800498223
3940101,-0.00724037018613,0.0283410997554,0.000205287903196,0.999572066917,-0.0173172097587,-0.163608635257,-0.0092493593868,-0.549220481481,-0.140192807438,9.67652214095
3940179,-0.00726869964279,0.0280357964493,0.000203869312668,0.999580471278,-0.0206068873303,-0.16116731025,-0.00554961563208,-0.541897976144,-0.140379423476,9.65171941128
3940266,-0.0072045569043,0.0271672455836,0.00019580532544,0.99960492035,-0.0225806938733,-0.159276825185,-0.0016270091334,-0.52385752348,-0.138815451937,9.62941574833
3940339,-0.00735413293787,0.0261488151333,0.000192372849873,0.999630991511,-0.0199337672459,-0.1564397739,0.00370638519604,-0.500822823414,-0.140750111006,9.56527647536
3940420,-0.0079299477417,0.0258478865338,0.000205047351991,0.999634413496,-0.0157914709007,-0.153886163006,0.00733211185517,-0.491790406695,-0.15076945259,9.50213263449
3940499,-0.00771609277938,0.026327069558,0.000203218606426,0.999623582166,-0.0120290229092,-0.152779686531,0.0043992671131,-0.496905443968,-0.145528309738,9.4259391034
3940582,-0.00857977429646,0.0242886381075,0.000208460210874,0.999668147975,-0.00721741374551,-0.155521321138,-0.00204303040822,-0.457597096947,-0.161537237307,9.40991108533
3940660,-0.00896870664847,0.0233403238792,0.000209397991473,0.999687324985,-0.00433044824731,-0.159294752209,-0.0071854791054,-0.438800492055,-0.168508972023,9.39047804768
3940740,-0.00979449426341,0.0231912842851,0.000227218920187,0.999683040062,-0.00259826894838,-0.164538641283,-0.0119737085696,-0.436381075262,-0.184184180821,9.39845067871
3940819,-0.0104904793936,0.0233896669843,0.000245449485875,0.999671352533,-0.00155896136903,-0.169387734972,-0.0148466462481,-0.442590870499,-0.198377709421,9.45087887036
3940908,-0.0105482680119,0.0224633679097,0.000237022630491,0.999691990047,0.00587566416197,-0.172297191186,-0.0131648883635,-0.432190957846,-0.202823683758,9.60994673384
3940979,-0.0122423686848,0.0206100375364,0.000252388213937,0.999712602232,0.0175731705254,-0.171914414607,-0.00577048271076,-0.399375371827,-0.237094730274,9.67905123366
3941065,-0.0130646266963,0.0191662044469,0.00025046670224,0.999730918499,0.0275715047737,-0.169556298352,0.000794610988164,-0.370109213575,-0.252150694366,9.64581484176
3941140,-0.0129190859583,0.0199016456966,0.000257183484524,0.999718438148,0.0378274059373,-0.165161598169,0.0060107373919,-0.380801098213,-0.247058483026,9.55739883914
3941223,-0.0137525786781,0.0207054221793,0.00028484096694,0.999690987725,0.0448323267584,-0.162524778059,0.0074376529883,-0.394638254143,-0.261959668673,9.51919328786
3941299,-0.01249218972,0.0200195833797,0.000250158100055,0.999721510671,0.0452040686979,-0.162645446239,0.00105707130128,-0.379477371431,-0.236663296321,9.46825779767
3941380,-0.0122622967585,0.0176868558992,0.000216931726857,0.999768355244,0.035636242448,-0.164420607393,-0.00958231869432,-0.334467816902,-0.231780540048,9.44727331019
3941459,-0.0120104043299,0.0169359003317,0.000203450870856,0.9997844188,0.0256386460834,-0.166337084208,-0.018094402999,-0.321827294145,-0.228132625787,9.49381939871
3941541,-0.011398731817,0.016374471083,0.000186685366938,0.999800935566,0.0153831876501,-0.166635590175,-0.0227759635203,-0.314721820823,-0.219000692415,9.60314990827
3941619,-0.0112504071352,0.0167637189783,0.000188637114553,0.999796164466,0.00922991259003,-0.164686243447,-0.0230307594644,-0.325781427455,-0.218549355879,9.70968906239
3941700,-0.0106371290757,0.0172573545027,0.000183606442216,0.999794479625,0.00553794755402,-0.16053680498,-0.0138184556786,-0.336008493924,-0.207025806154,9.72812272333
3941780,-0.0095324674043,0.0177116031251,0.000168869444988,0.999797680865,0.00630259896265,-0.154641621408,-0.000202962239392,-0.342144733806,-0.184070525197,9.65203397945
3941865,-0.00787174567652,0.0173439898118,0.000136552249436,0.99981858504,0.00548431962344,-0.149401751019,0.0105204741929,-0.333137208936,-0.151143743341,9.59800102732
3941939,-0.00715036865228,0.0157557389347,0.000112676209749,0.999850296906,-0.00139199890202,-0.147109208909,0.0144003956835,-0.300678215254,-0.136415497713,9.53709025629
3942026,-0.00706685557908,0.0148970009989,0.000105289268205,0.999864054673,-0.00934900057045,-0.147010753827,0.0137485181477,-0.282639340041,-0.134042894819,9.48210844088
3942099,-0.00672563712564,0.0146501643569,9.85444945667e-05,0.999870055947,-0.0179544121247,-0.148654441024,0.0082491108886,-0.278519779562,-0.127830929763,9.501552368
3942180,-0.00604517490904,0.0134582492106,8.13663266467e-05,0.999891156461,-0.0235433491187,-0.154323244018,0.00494946653316,-0.259288631653,-0.116442305416,9.62957692495
3942260,-0.00404871752429,0.0120251787285,4.86904715773e-05,0.999919497056,-0.0264710212536,-0.159001595999,0.000841229612585,-0.233145312781,-0.0784845092263,9.69154760883
3942345,-0.00420411468194,0.0109278732183,4.59451817773e-05,0.999931450098,-0.0252477941043,-0.158828776757,-0.00204940260122,-0.212670918137,-0.081806629608,9.72849059899
3942419,-0.00404297942635,0.0100993337182,4.08338147301e-05,0.999940826303,-0.0223854075074,-0.156170944843,-0.00293240180658,-0.196794978861,-0.0787720783508,9.74107958644
3942499,-0.00432974164286,0.0104913959452,4.54279599818e-05,0.999935588868,-0.0155596948118,-0.154150555634,-0.00175944108395,-0.203310566418,-0.0838945324109,9.68734141642
3942579,-0.00397289957434,0.0100237333027,3.98256009158e-05,0.999941867937,-0.0140184075631,-0.152938322108,-0.00658963544938,-0.191657608161,-0.0759546772102,9.55837276733
3942659,-0.00472218334535,0.00989361755263,4.67222837724e-05,0.999939905761,-0.0160734656442,-0.152636672054,-0.0116162023759,-0.187299455034,-0.089386696707,9.46375332593
3942739,-0.00551077106682,0.00773443791301,4.2624638912e-05,0.999954903011,-0.0194349508002,-0.155435512452,-0.0150578325933,-0.145180235764,-0.103431412555,9.38375790498
3942820,-0.00583353901292,0.00693027601334,4.04296943693e-05,0.999958968889,-0.0210261518323,-0.158817576936,-0.0158457405394,-0.129485510843,-0.108985200072,9.34054905573
3942900,-0.0066029690481,0.00654335274762,4.32074226215e-05,0.9999567908,-0.0219808724515,-0.162975265934,-0.0133386548768,-0.122702297717,-0.123809640551,9.37447878769
3942979,-0.00608623610113,0.00703299986099,4.28063492217e-05,0.99995674547,-0.0208509445772,-0.171003850132,-0.00800319292608,-0.1337158403,-0.115705473051,9.50473048306
3943061,-0.00737394802577,0.00707643650354,5.21840004641e-05,0.999947771743,-0.0176188474839,-0.178800831081,-0.00480191575565,-0.136253823028,-0.141967594134,9.62525886967
3943139,-0.00868227857085,0.00634837524548,5.51215508655e-05,0.999942154893,-0.0105713084903,-0.180073499159,0.00265282134562,-0.122693142205,-0.167780513756,9.66094461624
3943219,-0.0104719918214,0.00611855350272,6.40781554706e-05,0.999926445587,-0.0063427850942,-0.176154509329,0.00712566360638,-0.118148036202,-0.202182458644,9.65171028293
3943299,-0.0107497750854,0.00635286975795,6.82972457497e-05,0.999922036319,-0.00125153068775,-0.167417764509,0.00725522859406,-0.122364157415,-0.20702189462,9.62725548982
3943380,-0.0112100097793,0.00677437347791,7.594730806e-05,0.999914215209,-0.000750918412648,-0.163027097741,0.00094761666474,-0.129921653628,-0.214953379692,9.5855281352
3943460,-0.0125235567584,0.00638877788869,8.00181311828e-05,0.999901163936,-0.000450551047589,-0.161669767864,-0.00751954116893,-0.12224572289,-0.239584144514,9.56288592409
3943539,-0.0138495337989,0.00422196121914,5.8478324562e-05,0.999895175525,-0.00367585112025,-0.163409510306,-0.0185594967296,-0.0807694588805,-0.264897090713,9.56055334523
3943624,-0.0144846774044,0.00280959606965,4.07005232265e-05,0.999891143392,-0.00475965104092,-0.166581806079,-0.0256091601275,-0.0539683391466,-0.278169497103,9.59913696563
3943699,-0.0152611733762,0.0021490376163,3.28007313473e-05,0.999881231521,0.000549729867143,-0.171039323912,-0.0281361979203,-0.0417183899626,-0.29618858791,9.70057753216
3943779,-0.0144735604469,0.000314300966913,4.54953081971e-06,0.99989520313,0.0101207093339,-0.170734004181,-0.0253955199814,-0.00611684086232,-0.281621504797,9.72576826734
3943860,-0.0143977980933,-0.00125543189179,-1.80773429311e-05,0.999895558033,0.0175660572598,-0.167570981912,-0.0211969728493,0.0243420549064,-0.279106179245,9.68964679293
3943940,-0.0131272318551,-0.0029321060585,-3.84939184276e-05,0.999909534436,0.0203305057695,-0.159287817629,-0.0144209439555,0.0560249216646,-0.250781925321,9.5494609261
3944021,-0.0116098560101,-0.003319988262,-3.85473961269e-05,0.99992709106,0.0177322742607,-0.152615158813,-0.00865256637327,0.0628242132526,-0.219661583171,9.45816680102
3944101,-0.0123940706313,-0.00216520477288,-2.68378252086e-05,0.999920845958,0.00723384406473,-0.152442774077,-0.00519153982396,0.0408069901098,-0.233550520459,9.41967089726
3944179,-0.0121947296326,-0.00301568852458,-3.6778408276e-05,0.999921093306,-0.00459918485186,-0.161278834526,-0.00524337420169,0.056805916478,-0.229673454365,9.41476928762
3944259,-0.0116683821827,-0.00440212805528,-5.13697075513e-05,0.999922230719,-0.0134017624477,-0.168708921103,-0.00527447482832,0.08316468392,-0.220404029895,9.44247410309
3944339,-0.0114036204256,-0.00534309355204,-6.09354429831e-05,0.999920699395,-0.0212374493739,-0.173166973049,-0.00316468489699,0.102810667041,-0.219391358366,9.61735372211
3944419,-0.0107129243713,-0.00496123735793,-5.31530650616e-05,0.999930305846,-0.0255131714682,-0.176693184339,0.000655329430576,0.0971205847952,-0.209685789141,9.78477015685
3944499,-0.00984932267027,-0.00582222130949,-5.73486902365e-05,0.999934542504,-0.0246730842331,-0.179660291236,0.00720423864174,0.114296669725,-0.193327960301,9.81267570739
3944581,-0.00915877891356,-0.00560890435011,-5.13736778413e-05,0.999942325498,-0.0228919617076,-0.178460724945,0.0115592742299,0.10975827039,-0.179203700009,9.78177442468
3944660,-0.00818906410593,-0.00592119607864,-4.84915304019e-05,0.999948936854,-0.0252288086841,-0.17220701437,0.011618155214,0.114457255935,-0.158279295201,9.66291660549
3944740,-0.00814290156186,-0.00879467370924,-7.16193068203e-05,0.99992816829,-0.0317391976075,-0.171434618456,0.00697089312841,0.168273142623,-0.155780299288,9.56406859489
3944819,-0.00855648017611,-0.00975166668856,-8.34469657016e-05,0.999915838799,-0.0369225011459,-0.171822561031,0.00418253587705,0.18595804451,-0.163139447884,9.53157484712
3944902,-0.00966610787095,-0.0112331311923,-0.00010859258351,0.999890179635,-0.0404581733304,-0.170352566329,-4.46188425437e-05,0.21284955693,-0.183117247832,9.4701800694
3944979,-0.00967741722436,-0.0111685273165,-0.000108094303171,0.999890793992,-0.0366199157806,-0.173727470123,-0.00172953155137,0.212225052762,-0.183851179998,9.49702896693
3945059,-0.0103809140479,-0.0110037977409,-0.000114242552072,0.999885563456,-0.0287829904518,-0.177455172645,-0.00103771893082,0.211132089763,-0.19913558959,9.58927391825
3945139,-0.00933513505167,-0.0118092983952,-0.000110253888764,0.999886685364,-0.0155670340252,-0.176711963728,0.00108012888735,0.228432824414,-0.180533496088,9.66760522497
3945223,-0.0098178065517,-0.0119137517796,-0.000116980851745,0.999880822653,-0.00550900986197,-0.172860517887,0.00277652763972,0.231151819893,-0.190441214596,9.69664749656
3945299,-0.0107325236821,-0.0125135408289,-0.000134320128223,0.999864093859,0.00435701518913,-0.166718439828,0.00166591658383,0.241881183488,-0.207399173338,9.65972448182
3945381,-0.0117664749982,-0.0125749038122,-0.000147984239005,0.999851688982,0.0119793904656,-0.163033192993,-0.000703210295548,0.242572717661,-0.226911335057,9.63948603431
3945459,-0.0140341304801,-0.0140192519378,-0.00019678673597,0.999803213153,0.0191069560003,-0.160822044892,-0.0063815870378,0.268126755597,-0.268306732675,9.55527749583
3945540,-0.0151404829831,-0.0171834967562,-0.000260234705427,0.99973767834,0.0221064251367,-0.157792595786,-0.0148968938207,0.326075967909,-0.287158467095,9.47841615448
3945620,-0.0159412767015,-0.0190344959504,-0.000303527747994,0.999691688238,0.025183176803,-0.158954756752,-0.0217088381363,0.36060607513,-0.301821390072,9.46126918976
3945700,-0.0158417842562,-0.018752570593,-0.000297163742764,0.99969859991,0.0325631986017,-0.166463094316,-0.0249446246027,0.360255164853,-0.304154799375,9.59439369037
3945779,-0.0160093829304,-0.0192773491594,-0.000308715418269,0.999685944766,0.0378425918039,-0.170968096854,-0.0256090262982,0.375367509312,-0.311540349107,9.72430720543
3945862,-0.0160157311208,-0.0204539594195,-0.000327695726378,0.99966245529,0.0384560873564,-0.167711437516,-0.0247305971311,0.399518386447,-0.312619796623,9.75389244093
3945939,-0.0150089613657,-0.0205557980972,-0.000308621174282,0.999675995009,0.038824184688,-0.158095020807,-0.0212237092006,0.397488921272,-0.290043709028,9.65696132272
3946020,-0.0133936770935,-0.019939201781,-0.000267136314608,0.999711441509,0.0381936629639,-0.150196720474,-0.016991126135,0.381187771709,-0.255907922194,9.54876383709
3946100,-0.0127544623129,-0.018576997222,-0.000236999797266,0.999746049103,0.0280244785159,-0.146734810459,-0.0136001961727,0.352492888855,-0.241890794576,9.47857810206
3946180,-0.011815469616,-0.0191547888696,-0.000226380171005,0.999746686663,0.0151119268637,-0.147211804819,-0.0119913282568,0.361612177405,-0.222946030701,9.43072057705
3946259,-0.0121244565537,-0.0213188173942,-0.000258556855866,0.999699174115,0.000979044950441,-0.151754902049,-0.00719479695406,0.402996775437,-0.229056844495,9.44174980961
3946342,-0.0117654396298,-0.0217801154688,-0.000256331193887,0.999693520683,-0.00409516370582,-0.156609210695,0.00079140256511,0.417771887284,-0.225540727791,9.58052728079
3946419,-0.0115090185802,-0.0213560516923,-0.000245859562711,0.999705657231,-0.00245709822349,-0.160798866066,0.00813726264538,0.417060147751,-0.224628158598,9.75453400641
3946499,-0.0105330974521,-0.0218676159664,-0.000230401615399,0.999705360666,0.00150557149614,-0.163738349351,0.0150989190623,0.433153095487,-0.208518306292,9.89413280619
3946580,-0.00893026584412,-0.022783858922,-0.000203526871899,0.999700507503,0.00558593357377,-0.161245138707,0.0197016029739,0.452625090935,-0.177304579966,9.92330428821
3946660,-0.00669942054785,-0.0237042281722,-0.000158852796373,0.999696555009,0.00888553094327,-0.148681270722,0.0199090729521,0.464787128535,-0.131282445245,9.79452145598
3946740,-0.00559282267213,-0.0227636885815,-0.000127348266159,0.999725221548,0.00362855832011,-0.139865879747,0.0119454437713,0.441677990012,-0.108457567733,9.69307031988
3946831,-0.00559606060873,-0.0227162389979,-0.000127156255095,0.999726282751,-0.00420821592986,-0.137982165654,0.00248467558669,0.437389313538,-0.107691330191,9.61903152908
3946906,-0.00634193769963,-0.0266243824852,-0.000168913453944,0.999625376605,-0.0152956314018,-0.141108837813,-0.00659730581576,0.507839258289,-0.120878537128,9.52600596091
3946980,-0.00672758373442,-0.0300444845859,-0.000202222659279,0.99952590145,-0.0202453204391,-0.144687601354,-0.00864097416554,0.571417619915,-0.127833180626,9.4955691576
3947063,-0.00727694604299,-0.0316785482093,-0.000230644960771,0.999471591614,-0.0193839233083,-0.147686239601,-0.00688734474517,0.60238203191,-0.138230891042,9.49215112591
3947143,-0.00698903605324,-0.0310368380635,-0.000217027443326,0.99949378235,-0.00865052355475,-0.144802831874,-0.000726886355408,0.597497502837,-0.134413870318,9.6105286504
3947227,-0.0064788896793,-0.0301743794196,-0.000195589647891,0.999523632817,0.00204641691201,-0.139241576684,0.00509783898576,0.583553457757,-0.12518047307,9.655458367
3947299,-0.00600770742472,-0.0289373032564,-0.000173922828173,0.999563159426,0.0127214818067,-0.133350683202,0.00901836425193,0.554836316598,-0.115091451567,9.57395886175
3947384,-0.0059929737401,-0.0277111874782,-0.00016613920806,0.999597992571,0.0191265207435,-0.130241837173,0.00924222910431,0.525635023601,-0.113587021819,9.47238672208
3947459,-0.00550193021585,-0.0268254747713,-0.000147647260858,0.999624980114,0.0174355733066,-0.128802219618,0.00256550703235,0.503086424317,-0.10310755733,9.3661930269
3947545,-0.00683728539078,-0.0283277699168,-0.000193767343201,0.999575285526,0.00620444336931,-0.130492589454,-0.00740018707129,0.529540432471,-0.127705080052,9.33431969187
3947621,-0.0091388778674,-0.0308227464293,-0.000281831008746,0.999483046272,-0.00351406502327,-0.134486641785,-0.0150823637793,0.577973979942,-0.171194013607,9.36044610223
3947711,-0.0112870786078,-0.0311609703371,-0.000351909666124,0.999450585043,-0.0072167197515,-0.138160143368,-0.0184145996198,0.595541940455,-0.215483306358,9.53892766134
3947787,-0.0117554620184,-0.0307476937808,-0.000361649366884,0.999457981933,-0.000924511359206,-0.141641314503,-0.0110487597719,0.600576052945,-0.229367613209,9.74896726819
3947859,-0.0123016969578,-0.029999396451,-0.000369237649225,0.999474145803,0.00753340435225,-0.143730017183,-0.00492649561727,0.595456234794,-0.243923121636,9.90731275471
3947949,-0.0113463263509,-0.0307685813143,-0.000349298262278,0.999462071953,0.0219733351313,-0.141152028239,0.00257807342865,0.611777377351,-0.225362527767,9.92426907251
3948020,-0.0109606911462,-0.0311916468078,-0.000342069028371,0.999453264244,0.032765743906,-0.135774024319,0.00835788504058,0.614387457905,-0.215662692441,9.83125277163
3948100,-0.00996141701651,-0.0301432520773,-0.000300420944848,0.99949590508,0.0345585984948,-0.128716011413,0.00884594157751,0.582674103161,-0.192365119127,9.64950798378
3948186,-0.0100963922669,-0.0297168247546,-0.000300180612581,0.999507320174,0.0296746503876,-0.125758273855,0.0053075649465,0.563646090315,-0.191315264103,9.46863506126
3948261,-0.0104324009375,-0.0305654581274,-0.000319037564887,0.999478271897,0.0148249598023,-0.131646052426,-0.00532926226134,0.573298257216,-0.195473754409,9.36250550941
3948344,-0.0125775861716,-0.0339358017898,-0.000427110323834,0.999344776971,0.000806864713608,-0.140712690368,-0.0163939492621,0.637029237533,-0.235797234823,9.36586542479
3948420,-0.0130963787566,-0.035284872133,-0.000462431741294,0.999291373334,-0.00802968240108,-0.147004053255,-0.024309831647,0.665930439248,-0.246823213941,9.41480772655
3948504,-0.0120952741016,-0.0348210379771,-0.000421456471226,0.999320280007,-0.00950040011673,-0.15120456105,-0.0265052207091,0.669863630981,-0.232369826802,9.59764143403
3948580,-0.0114898391144,-0.0345438574442,-0.00039716666442,0.999337054136,-0.00570024007004,-0.153299175665,-0.0239912435933,0.674138907348,-0.223937214685,9.7370297591
3948660,-0.0103649251187,-0.0337667159954,-0.00035020803623,0.999375932556,0.00466796712576,-0.149021973635,-0.014394746156,0.664733064868,-0.203794176955,9.82353579613
3948739,-0.00942879216757,-0.0327339306644,-0.000308820675469,0.999419577701,0.0121659616276,-0.143475821987,-0.00650839738626,0.63802058477,-0.183568068673,9.72771717592
3948819,-0.00799522427404,-0.0316338199892,-0.000253054233011,0.999467515123,0.013259237837,-0.142276581305,-0.00135089806298,0.608824987581,-0.153715311419,9.60701907997
3948901,-0.00652349930981,-0.033178934198,-0.000216566605715,0.999428114164,0.00242157190322,-0.148793767941,-0.000810538837791,0.632966738154,-0.124311489097,9.5219109536
3948979,-0.00620416505897,-0.0347144110473,-0.000215507983681,0.999377992332,-0.0108920686405,-0.155258220291,-0.000486323302675,0.660619897629,-0.117921943507,9.49694287587
3949059,-0.00810680174832,-0.0395378553613,-0.000320786952892,0.999185135425,-0.0286711243803,-0.159136891701,-0.0036973144733,0.752629145608,-0.154071383878,9.49393303753
3949139,-0.00831250978552,-0.0405777376475,-0.0003375925803,0.999141749413,-0.0384871777013,-0.161464094547,-0.00519821911421,0.779822534973,-0.159480476811,9.58358563795
3949222,-0.00774858607944,-0.0403909807644,-0.000313238035455,0.999153857005,-0.0405455991407,-0.164563176501,-0.00482169171438,0.784646400622,-0.150276083938,9.68789485323
3949299,-0.00745425372908,-0.0409355434052,-0.00030540843032,0.999133936023,-0.0315640905293,-0.168976766042,-0.00119025478278,0.808130854289,-0.146908229709,9.84457250764
3949379,-0.00701381898421,-0.042167397167,-0.000296025088224,0.999085896872,-0.0219182847478,-0.170773539643,0.00183998749911,0.836586736451,-0.13890201302,9.89213158808
3949459,-0.00631768108895,-0.0443539284095,-0.000280495630357,0.998995864487,-0.00974545035699,-0.163337802575,0.00323244280677,0.872574458863,-0.124042636035,9.80646361715
3949539,-0.00586153360651,-0.0447554280283,-0.000262603105483,0.99898074312,-0.000313299415185,-0.152491009412,0.00193946568406,0.866154932886,-0.113211648515,9.64660549939
3949619,-0.0053610243678,-0.0447031315724,-0.000239897857674,0.99898590175,0.00279185078112,-0.146408623576,-0.00309322120418,0.855599452651,-0.102403493016,9.5403955616
3949706,-0.00596651365278,-0.0448670996478,-0.000267974807058,0.998975110938,-0.00513593051472,-0.146164712566,-0.0116468041361,0.849026744345,-0.112678011337,9.43213744804
3949779,-0.00756469126443,-0.0481670573968,-0.000364802821688,0.998810581115,-0.0192577806444,-0.145592675898,-0.0163532638338,0.905177581031,-0.141827058267,9.36215475642
3949861,-0.00883040696382,-0.0503479063039,-0.000445174522547,0.998692602387,-0.0285822708451,-0.144398073775,-0.0179000694681,0.946290108189,-0.165541410741,9.35990888901
3949940,-0.0104476802973,-0.0520327762909,-0.000544389086346,0.998590576667,-0.0277916140436,-0.144532692624,-0.0149969422955,0.986280515109,-0.197487114511,9.43637292252
3950019,-0.0108216955334,-0.0519681002996,-0.000563177066135,0.998589951025,-0.0243373895325,-0.145464844056,-0.0119779958075,0.99950085179,-0.207556570465,9.5746675267
3950103,-0.0114264053812,-0.0522121518812,-0.000597451291366,0.998570463967,-0.0167308840268,-0.145598444854,-0.00718679748451,1.02155884359,-0.222935630511,9.73952598599
3950179,-0.0122799318252,-0.0518757315661,-0.000637937695771,0.998577841124,-0.00791008010877,-0.144401535148,-0.00431207849071,1.02306205054,-0.241500453014,9.81713266679
3950259,-0.0117991268352,-0.0511442000104,-0.0006042899813,0.998621392844,0.00632189353275,-0.137298038403,-0.00258724709442,1.00648630259,-0.231570371906,9.79761670945
3950338,-0.00932763868136,-0.0501730154713,-0.000468606413554,0.998696872972,0.0140096975947,-0.127927659618,-0.00155234825665,0.975232459044,-0.180840752196,9.6798440015
3950418,-0.00912063610003,-0.0496942543096,-0.00045382286467,0.998722728854,0.0143654794173,-0.121028362163,-0.000931408953993,0.956240732751,-0.17506325747,9.58356241897
3950498,-0.00816768704248,-0.0500725782783,-0.000409504549818,0.998712099706,0.00563945722015,-0.11986861412,-0.0060928161714,0.957534965774,-0.155795029677,9.52387810812
3950580,-0.00860693543594,-0.0513786761932,-0.00044281426571,0.998642056099,-0.00300167658984,-0.123429665909,-0.0108924207477,0.9779439592,-0.163387706283,9.4775330343
3950659,-0.00999259354363,-0.0535840666009,-0.000536241081802,0.998513198874,-0.0111661873061,-0.128120437351,-0.0146235636164,1.01652557352,-0.189012286856,9.4420645447
3950739,-0.0116299785433,-0.0550079917592,-0.000640755454672,0.998417975536,-0.0130850633056,-0.130934900216,-0.0164365592762,1.04925134875,-0.22114644682,9.49069413942
3950819,-0.0124663166262,-0.0547930543588,-0.000684148743063,0.998419673326,-0.0104051783521,-0.13390064812,-0.0179500467335,1.05476102409,-0.239229841969,9.57781157643
3950900,-0.0124403612568,-0.0540884531566,-0.000673918794796,0.99845842301,-0.000283446150801,-0.133977336616,-0.0188581392079,1.05615146797,-0.24217901358,9.71651271856
3950981,-0.0122777110437,-0.0528886427624,-0.000650310860706,0.998524724969,0.0079180434773,-0.131043519284,-0.0185516145696,1.04046574284,-0.240836054388,9.79135369803
3951059,-0.0120015097976,-0.0522974327121,-0.000628553748883,0.998559235706,0.0115618670698,-0.124174948147,-0.0175163196637,1.02171692129,-0.233805354557,9.72468848835
3951143,-0.0101722346211,-0.0529622931875,-0.000539530128336,0.998544555866,0.00949126061064,-0.117499665096,-0.0198749731504,1.01501661152,-0.194392170254,9.53960074194
3951221,-0.00955605487345,-0.053469755038,-0.0005117154033,0.99852361277,0.00569475636638,-0.113068805204,-0.0217158553038,1.01458772814,-0.180799906644,9.44458924521
3951308,-0.00968589411377,-0.0542297086645,-0.000526062109865,0.998481369587,-0.00254280704064,-0.11381580976,-0.0223946945345,1.02462546525,-0.182460775285,9.40314465797
3951379,-0.00934931543594,-0.0559466459688,-0.000523906409689,0.998389848019,-0.0138706960068,-0.118095223047,-0.0215249278885,1.05530838462,-0.175795851158,9.38498167027
3951459,-0.00944524017303,-0.057211880442,-0.000541290818537,0.998317231735,-0.0223701896323,-0.121088561081,-0.019300307655,1.07898537989,-0.177542980665,9.38126648263
3951539,-0.00953917855467,-0.0564658651396,-0.000539523428765,0.998358812783,-0.0266185056847,-0.124161634085,-0.0162627752691,1.07762926627,-0.181464300362,9.49443789007
3951619,-0.0102170177616,-0.0555015954002,-0.000567966032256,0.998406161274,-0.0274647350703,-0.125154097765,-0.0131631856531,1.07083009394,-0.196506360979,9.59969028043
3951699,-0.0106161808419,-0.0544712940825,-0.000579169764532,0.99845873194,-0.0262697124558,-0.125749575973,-0.00789791139189,1.07010247287,-0.207925799009,9.77608745317
3951779,-0.00919618129502,-0.0531122768158,-0.000489141298132,0.998546081582,-0.0251270088256,-0.127383933082,-0.00473874683513,1.05817373226,-0.182695159581,9.91735994138
3951859,-0.0094504284229,-0.0524298243783,-0.000496189005108,0.998579769831,-0.0231643164632,-0.128790237409,0.000136582329154,1.04407330307,-0.18766806987,9.91353797289
3951943,-0.00851761964599,-0.0532663420823,-0.000454364036649,0.998543910156,-0.0211353209228,-0.128782639882,0.0056159201965,1.04854173453,-0.167188639773,9.79871731376
3952019,-0.00831674154158,-0.0543984126019,-0.000453104184948,0.998484571345,-0.0211949937829,-0.130055151551,0.0106062831628,1.06175728071,-0.16184416653,9.71402318733
3952099,-0.00616553913762,-0.0557813375726,-0.00034446492668,0.9984239129,-0.0280418384824,-0.133798488982,0.0165803313727,1.08117877638,-0.119133155192,9.64501077885
3952179,-0.00643125604577,-0.0582124428493,-0.000375022877435,0.998283431597,-0.0355554657938,-0.135618801379,0.0205904503602,1.12539281637,-0.123912909472,9.6160531824
3952259,-0.00759593513703,-0.0609795698403,-0.000464073955487,0.998110003189,-0.0443205427952,-0.134156848449,0.0246992819985,1.16820181165,-0.144976694658,9.52374011256
3952339,-0.00871793445156,-0.0632128586035,-0.000552211054194,0.997961836539,-0.0491538989346,-0.131576916445,0.0280159611044,1.20322459529,-0.165276411082,9.45829662369
3952419,-0.00961318534943,-0.0637258601833,-0.000613884802044,0.997920951056,-0.0499254623109,-0.130454647304,0.0308573486909,1.20987305551,-0.181765803925,9.43267747983
3952500,-0.00917190612213,-0.0635325245484,-0.000583918712579,0.997937449694,-0.0452801195992,-0.132761116249,0.0317108011199,1.20811604766,-0.173702927179,9.44819119493
3952589,-0.00977242736104,-0.0641103633743,-0.000627835609161,0.997894767395,-0.0395130835419,-0.135847757863,0.0317971825158,1.22597603607,-0.186103453085,9.50011621354
3952660,-0.00979182159337,-0.0643788215901,-0.000631726907608,0.997877291295,-0.0326473414159,-0.138976813015,0.0318490113533,1.24148043243,-0.18803710481,9.57963409824
3952742,-0.0106458446704,-0.064232733002,-0.000685265884168,0.997877924605,-0.0263994458329,-0.137448725615,0.03017734841,1.25221959125,-0.206674967964,9.68432682857
3952819,-0.0114252416753,-0.0635390232115,-0.000727466418477,0.997913687237,-0.0217993283602,-0.136106183113,0.0270459003367,1.24597381774,-0.223124929509,9.74211464329
3952900,-0.0122457471812,-0.0642351758634,-0.000788295195749,0.997859340012,-0.0211677081839,-0.132746517243,0.0209101308781,1.25635214342,-0.238501570254,9.71501692928
3952979,-0.0134241811216,-0.0651099519038,-0.000875985983855,0.997787411312,-0.0233428764469,-0.129453647537,0.0151002188956,1.26976174382,-0.260656243666,9.68439309092
3953060,-0.0145305355261,-0.0678391968531,-0.00098812127062,0.997589961118,-0.0276278078349,-0.127052235652,0.00735737109153,1.3120445878,-0.279695131698,9.59826288092
3953139,-0.0154757889046,-0.0685052896116,-0.00106279835577,0.997530147771,-0.0297730766063,-0.124334318336,0.000583212101762,1.31945778173,-0.296625128335,9.55664040189
3953223,-0.016137620036,-0.0703324514599,-0.00113796572076,0.997392414512,-0.0285060975003,-0.121426497763,-0.00560973359941,1.35024191635,-0.308219647314,9.52137184734
3953300,-0.0157322654504,-0.069836571411,-0.00110151421274,0.997433775137,-0.0247660796065,-0.115850594865,-0.00804843083573,1.33782719571,-0.299853468076,9.50212607593
3953379,-0.0142400051552,-0.0694943633805,-0.000992099975342,0.997480211056,-0.0203936185629,-0.112079363065,-0.00908595911606,1.33564560698,-0.272328264927,9.53511076397
3953459,-0.0143439897854,-0.0688130409504,-0.000989501625393,0.997525957677,-0.0122361711377,-0.113222144477,-0.00928278602279,1.32787230925,-0.275445596652,9.57477345057
3953538,-0.0152623904545,-0.0693551409406,-0.00106120509134,0.997474710309,-0.00734170268265,-0.113907813324,-0.00812381198245,1.33972832208,-0.293357146809,9.58300875174
3953619,-0.015423636596,-0.070963786987,-0.00109741790239,0.997359036679,-0.00185088124082,-0.112190764325,-0.00487428718947,1.383233795,-0.299076253418,9.66647974689
3953700,-0.0155074836448,-0.0718423330037,-0.00111711580833,0.997294815585,0.00229499174721,-0.110309154803,-0.000796122006371,1.41340722158,-0.303465398047,9.75463015038
3953779,-0.0155454946959,-0.0736379010039,-0.00114799421114,0.997163215948,0.0039311354171,-0.105348978536,0.00207646716495,1.44898894965,-0.304183523496,9.75245375429
3953862,-0.0152696470227,-0.074328598815,-0.00113825391552,0.9971162428,0.00235868125026,-0.093007691424,0.00380002066774,1.45022669254,-0.296234692955,9.66878737953
3953942,-0.0153033278326,-0.0737120627256,-0.00113125091504,0.997161501582,-0.00156462168008,-0.083048778788,0.00228001240065,1.42223891836,-0.293620176125,9.56280265599
3954023,-0.0148994658662,-0.0733859594994,-0.001096490864,0.997191709037,-0.00519567362267,-0.0774991212678,0.00136800744039,1.40496741351,-0.283671760216,9.48963501522
3954100,-0.0150177579709,-0.0746275118563,-0.00112400003167,0.997097757516,-0.00865137497261,-0.0767234671245,-0.00130764584308,1.4214195692,-0.284406475319,9.43831240562
3954180,-0.0142916923606,-0.0756787766954,-0.00108480048313,0.997029234022,-0.011150485844,-0.0775351448229,-0.00376441793608,1.44326187092,-0.270960934752,9.44845968824
3954259,-0.0140215653536,-0.0762625280906,-0.00107254989646,0.996988601816,-0.0147784026742,-0.0784478415034,-0.00438710106896,1.45804319311,-0.266484912902,9.47106804927
3954338,-0.0133224305564,-0.0758249156899,-0.00101317966725,0.997031628622,-0.0178065328952,-0.0777183893273,-0.00263226064138,1.45541981845,-0.254222493151,9.51001160349
3954418,-0.0128073241216,-0.0751415095337,-0.000965170154784,0.997090163646,-0.0217518613351,-0.0734495074685,0.00480599453711,1.44259304586,-0.244470839641,9.51374528241
3954498,-0.0133568899094,-0.0740725232905,-0.000992193480475,0.997162910631,-0.0236933683376,-0.0662055876771,0.0122487780744,1.41885583118,-0.254421578492,9.49419825465
3954580,-0.013461833467,-0.072983473958,-0.00098520876854,0.997241806651,-0.0235812023547,-0.0605821656179,0.0167144481968,1.40245872087,-0.257279559644,9.52676276871
3954659,-0.0137254036861,-0.0716636743362,-0.000986242255497,0.997333925223,-0.0213854524577,-0.061465012997,0.0185424701473,1.38328306822,-0.263543331489,9.57215885507
3954738,-0.0137493947991,-0.0706621724578,-0.000974089806713,0.997405064492,-0.0200680025195,-0.0641231717318,0.0187879031947,1.3684257943,-0.264907392937,9.60562143121
3954820,-0.0133733306149,-0.0720639518692,-0.00096633460481,0.997309885174,-0.0184261524336,-0.0665694470956,0.0155296425315,1.41098676564,-0.260458586153,9.70901719466
3954899,-0.0142737710833,-0.0729235953409,-0.00104378093135,0.997234836547,-0.0153125920748,-0.0680372123138,0.0118719258876,1.4410723316,-0.280534217854,9.7966726105
3954980,-0.0144385352868,-0.0728620361729,-0.00105493591837,0.997236952531,-0.0134444558595,-0.0655123509531,0.00967729590136,1.44930744437,-0.28563641206,9.86099744813
3955059,-0.0141910708166,-0.0733268718172,-0.00104350191042,0.997206445267,-0.0118978840689,-0.0563350130303,0.00963758809397,1.44898126838,-0.278881501777,9.7954445785
3955139,-0.0144888389867,-0.0737836799466,-0.00107207550738,0.997168437513,-0.0101185608715,-0.0487001599694,0.0104651435325,1.44663078129,-0.28249000092,9.71780563016
3955224,-0.0155414537249,-0.0754963609948,-0.00117682512477,0.997024261377,-0.00607113652293,-0.0445449381943,0.0105359867341,1.5067514717,-0.308357696841,9.88741867106
3955299,-0.0203622787097,-0.0786941009563,-0.001607713494,0.996689536083,0.00870232986864,-0.0318352436541,0.00632159204046,1.60172124679,-0.411745515321,10.0715470327
3955383,-0.0228960972568,-0.0844746989031,-0.00194159540214,0.996160641756,0.0252288308099,-0.0114387250861,0.00379295522428,1.70347468289,-0.458215895619,9.96127865664
3955459,-0.0218871603656,-0.0880706113359,-0.00193560603531,0.995871865784,0.0415300822966,0.0191038586975,0.00227577313457,1.75447109758,-0.432468006609,9.8323895475
3955538,-0.0227409786043,-0.0898119839471,-0.00205123895658,0.995696965874,0.0538649735574,0.0399835493365,0.00136546388074,1.77549213975,-0.445749693126,9.75170419969
3955619,-0.0228126826288,-0.0924669893941,-0.00211905727559,0.995452131938,0.0663741890514,0.0601737848261,-0.00939728314665,1.80773721866,-0.441987116901,9.63649476469
3955698,-0.0254491731356,-0.0968096974293,-0.00247617095353,0.994974417082,0.0764338587166,0.0842072478409,-0.0196861419162,1.87257409755,-0.487374184203,9.51924565032
3955779,-0.0260177558565,-0.100105298227,-0.00261856861405,0.994633172957,0.0824696605157,0.104161296449,-0.0262851472394,1.92392607352,-0.494734550805,9.4481779212
3955859,-0.0267012662849,-0.101499211974,-0.00272521842911,0.994473491619,0.0907737322712,0.126350287089,-0.0336500709251,1.94228741047,-0.505375695083,9.40242482157
3955940,-0.0266608331954,-0.10125695666,-0.00271452662479,0.994499301179,0.100438766001,0.144346272149,-0.0397717853823,1.93558712036,-0.504098936337,9.3931688944
3956020,-0.0271055167557,-0.100048919445,-0.0027265752485,0.994609506523,0.11560296759,0.167914565028,-0.0464246444869,1.90642782885,-0.510994326402,9.36630694333
3956099,-0.0254977801311,-0.0979093245742,-0.00250935475385,0.994865483625,0.130661149405,0.194400552539,-0.0504163599496,1.8822284893,-0.485204039689,9.45768942723
3956179,-0.0241745941744,-0.0952986982935,-0.00231502959108,0.995152444472,0.13884467837,0.216677495967,-0.0523856991658,1.86770888557,-0.469251027329,9.65090377353
3956260,-0.0179679739166,-0.0928252775336,-0.00167538981154,0.995518866136,0.130984093906,0.246219884359,-0.0488847120194,1.80943714897,-0.347151741886,9.61216695406
3956348,-0.0150486529839,-0.0903395364107,-0.00136522722245,0.995796385994,0.119456702244,0.269479288194,-0.0429529091784,1.75651759456,-0.290172741909,9.59682572785
3956420,-0.0130794265976,-0.0866621421648,-0.00113787050974,0.996151247033,0.104452156079,0.290245971478,-0.0393938274738,1.68190965219,-0.2519151991,9.59001519379
3956500,-0.00999726119401,-0.0825442614207,-0.000828084271451,0.996536910481,0.0899154575809,0.310368402554,-0.0389611386969,1.59692229888,-0.192089967849,9.57156366339
3956591,-0.00776488060376,-0.0791339478555,-0.00061641750628,0.996833559304,0.0799163682978,0.324996001569,-0.0374244552464,1.53060699627,-0.149251644284,9.57844925761
3956660,-0.00320880137291,-0.0748293899035,-0.000240788986983,0.997191159217,0.0730655346049,0.336326701347,-0.0335226147459,1.44867986549,-0.0617782473123,9.59814292493
3956739,-3.50593490714e-05,-0.0708626023008,-2.49065801197e-06,0.997486085296,0.0676779642048,0.343976501337,-0.0299044402611,1.37127200743,-0.000675083153007,9.60253710017
3956825,0.00177492038371,-0.0652732703148,0.000116102639502,0.997865840863,0.0593371412272,0.349843451515,-0.0247537051401,1.25826848644,0.0340714540144,9.57668260556
3956900,0.00378326690046,-0.0587936250076,0.000222819019929,0.998262964805,0.0513528170104,0.354640691806,-0.0186834336372,1.12893539118,0.0723970484341,9.55063542149
3956979,0.00472836418392,-0.0528505520965,0.000250249206915,0.998591207197,0.0465622224804,0.357944726042,-0.0137642005511,1.01015526547,0.0901251614335,9.51609291793
3957059,0.00582249712285,-0.0484493220148,0.000282432519299,0.998808631298,0.0432621757008,0.358650076399,-0.00825852033066,0.924282559917,0.110817676206,9.50422596194
3957139,0.00621248833727,-0.0452229481291,0.000281240213289,0.998957562089,0.0404307675102,0.356519146245,-0.00495511219839,0.86222444928,0.118205361583,9.50285187233
3957220,0.00663877517383,-0.0402735228176,0.000267589872326,0.999166601934,0.0353264021041,0.349706617353,0.00383797366436,0.769922944715,0.126708115631,9.53434914098
3957299,0.00724508491957,-0.0377136628457,0.000273440411122,0.999262284693,0.0297096424917,0.340936509342,0.014647795981,0.719569865462,0.138034692377,9.51829215793
3957379,0.00739358031629,-0.0347236899183,0.00025689434459,0.999369568445,0.0267652767857,0.330566163798,0.0241135198012,0.663021799648,0.140999915768,9.52852984187
3957458,0.00882512718359,-0.0331686370304,0.000292890021987,0.999410762831,0.0228702070548,0.316255845304,0.0327727845236,0.633641943314,0.168397007566,9.53419361191
3957539,0.00825984218379,-0.0330875304521,0.000273456852758,0.999418288584,0.0179790248475,0.304264133716,0.0375426532956,0.635646483127,0.158499044383,9.58810952896
3957619,0.00791357104156,-0.0304731005062,0.000241270660282,0.99950423077,0.00823327453974,0.291960826025,0.03785043419,0.588965173812,0.15279968664,9.64871065878
3957700,0.00714859336925,-0.0265073105649,0.000189561441426,0.999623041034,-0.00442521662832,0.285855911595,0.0303726816203,0.515227136514,0.138845584689,9.70709799195
3957779,0.00645784506578,-0.0234849024637,0.000151706869544,0.99970332228,-0.0128716914521,0.280490202691,0.0220548195253,0.457337364672,0.125684720198,9.72776518189
3957860,0.00700362547058,-0.0173029569996,0.000121204549533,0.999825755929,-0.0179395763463,0.266202835751,0.00982737122351,0.337848762797,0.136702394619,9.75716432764
3957940,0.00671188502128,-0.013439138518,9.02121320869e-05,0.999887159642,-0.0214059973444,0.251670754726,-0.000488928187826,0.263043139514,0.131341990971,9.78270468057
3958023,0.00663869947354,-0.0123888466502,8.22539552889e-05,0.999901213812,-0.0260399903119,0.231032184391,-0.00880715814194,0.241383521648,0.129322849612,9.73865269115
3958099,0.0061509004798,-0.0110890664558,6.82132289397e-05,0.999919593955,-0.0360571171373,0.202898509915,-0.00996688556124,0.215459061963,0.11949223882,9.7122214975
3958179,0.00545624244683,-0.0103294172878,5.63636511792e-05,0.999931762362,-0.0458986037857,0.179207264247,-0.00810858164406,0.199664965987,0.1054535867,9.66260453791
3958259,0.00414324643727,-0.0106467915685,4.41151603412e-05,0.999934736566,-0.0564860864509,0.153498885186,-0.0018853185562,0.203835457863,0.0793133031431,9.57058511898
3958342,0.00244470752569,-0.0108486018002,2.65232985759e-05,0.999938163358,-0.0628385760499,0.133391267073,0.00440277966529,0.208013694152,0.0468697213878,9.58528415611
3958420,0.00117787367191,-0.0130199548835,1.53371727366e-05,0.999914542925,-0.0662243797479,0.115367035345,0.0115811590899,0.250024963317,0.0226151690143,9.59913140187
3958499,0.000334036970277,-0.0155690366637,5.20126454578e-06,0.999878739393,-0.0699586222126,0.0956130050178,0.0158881867446,0.297737220422,0.00638649642812,9.55835861529
3958579,-0.00127808657803,-0.0178526977515,-2.28209490486e-05,0.999839810748,-0.070922097507,0.0799293762682,0.0171953331531,0.341208624978,-0.024419681733,9.55161203563
3958659,-0.00358006526367,-0.0215695037858,-7.72386960753e-05,0.999760938261,-0.067243282069,0.0654109182809,0.0132970303221,0.411584198424,-0.0682819262273,9.53391713837
3958738,-0.00619233566775,-0.0250666060116,-0.000155272607529,0.999666592486,-0.0641846126833,0.0541457031197,0.00797821819325,0.478230399426,-0.118062449193,9.52928570416
3958818,-0.00893142389988,-0.0295968109955,-0.00026446808612,0.99952198,-0.0593695806216,0.0427039833469,0.00138141042426,0.56849635489,-0.171393939243,9.5894743473
3958899,-0.0104597334365,-0.0336169408087,-0.000351842384363,0.999379993533,-0.0543521110773,0.0345618812988,-0.00385374442153,0.647555625434,-0.201238051778,9.61241942406
3958979,-0.0120756770898,-0.0374501503262,-0.000452586482336,0.999225429735,-0.0500645591663,0.02967662007,-0.00571776714461,0.721566826188,-0.23231262843,9.60990589882
3959064,-0.0144102465702,-0.0407880511722,-0.000588316698681,0.999063728477,-0.0470663379583,0.0292996037015,-0.00513342053262,0.786324260752,-0.277293592683,9.61007372484
3959139,-0.0160687612695,-0.0424135490034,-0.000682235431821,0.998970680414,-0.0431389549261,0.0316275342491,-0.00478281256542,0.818714377008,-0.309549414887,9.61927238676
3959219,-0.0177063471887,-0.0432170250711,-0.000766051797518,0.998908497901,-0.0386540747995,0.0381325733153,-0.00286968753925,0.836711925765,-0.342071017341,9.64562113835
3959302,-0.0175434001454,-0.0425936468801,-0.00074803167959,0.998938161652,-0.036388836785,0.0437383570008,-0.00172181252355,0.823807858584,-0.338599642875,9.63677011221
3959379,-0.0189467540511,-0.0429896854137,-0.000815415613571,0.998895511331,-0.032901243669,0.0509330377653,-0.00103308751413,0.825642224916,-0.363092456623,9.5675343122
3959460,-0.0203808011543,-0.0439185566635,-0.000896146727958,0.998826801926,-0.0286802374921,0.0629122673303,-0.000619852508478,0.844938777332,-0.391195674169,9.58153831071
3959539,-0.0208628074115,-0.0443541398005,-0.000926465882586,0.998797574692,-0.0252962536631,0.0743567056839,-0.000371911505087,0.851728305462,-0.399677898886,9.56264681089
3959619,-0.0200611338538,-0.0431602178157,-0.000866825579258,0.998866354984,-0.0211374130583,0.0888857898024,-0.000223146903052,0.826832182252,-0.383458838941,9.54221394469
3959699,-0.0190705616083,-0.0410861103802,-0.000784340491089,0.998973287943,-0.0173650385111,0.100583070704,-0.000133888141831,0.78819191189,-0.365108276998,9.55892406505
3959779,-0.0181383619358,-0.0395612275794,-0.000718256593954,0.999052247486,-0.0155273038442,0.109729889552,-8.03328850988e-05,0.758064564859,-0.346915334851,9.55051478449
3959858,-0.0177824971086,-0.0372535174451,-0.000663025864858,0.999147395849,-0.0118705226753,0.116069360984,0.00208025057625,0.71413077871,-0.340309132551,9.55720080429
3959939,-0.0172831585517,-0.0352095649739,-0.000609001237465,0.999230307828,-0.00712231360517,0.120724423966,0.00124815034575,0.678433120546,-0.332514688515,9.60909644937
3960019,-0.0160601259547,-0.0321859394726,-0.000517245041387,0.999352725574,-0.000442177609943,0.123943151816,0.00074889020745,0.62086208058,-0.30940266931,9.62371384496
3960099,-0.0146429804017,-0.0288352906501,-0.000422455612612,0.99947682848,0.00356590398719,0.125874388527,0.00044933412447,0.55567367535,-0.281888508324,9.61811907236
3960179,-0.013120337689,-0.0251488329254,-0.00033009402317,0.999597561011,0.00809920325278,0.126607440491,0.000269600474682,0.485196590464,-0.2529301631,9.63319756158
3960263,-0.013147187906,-0.0213668910883,-0.000281002987721,0.999685214681,0.0116705629351,0.123216061117,0.000161760284809,0.412264558282,-0.253511668417,9.63649857113
3960339,-0.0132055477253,-0.0182863004478,-0.000241542073466,0.999745550819,0.013387688683,0.118627093124,9.70561708856e-05,0.352703608016,-0.254578832105,9.63488787437
3960419,-0.0117901244597,-0.0156220264858,-0.000184220926437,0.99980843731,0.0156950343161,0.108636981283,5.82337025313e-05,0.3011653069,-0.227206970894,9.63224551515
3960500,-0.0103941950755,-0.0137120601408,-0.000142546932215,0.999851948938,0.0179308218189,0.0992373936867,3.49402215188e-05,0.263299141415,-0.199531106364,9.59570475538
3960579,-0.0097910907223,-0.0122208815508,-0.000119670434244,0.99987737762,0.0179952241362,0.0884893603915,2.09641329113e-05,0.234354517808,-0.187713990967,9.58383594649
3960659,-0.00834386535855,-0.0113769330453,-9.49370472542e-05,0.999900463192,0.0163311052807,0.0765065696153,0.00256671884852,0.218903104972,-0.160512427783,9.61693724905
3960739,-0.00775831855895,-0.0110591856407,-8.58085157783e-05,0.999908743608,0.0157583240289,0.0654856845964,0.00451986173935,0.212744719428,-0.149219313359,9.61525021564
3960818,-0.00709292935031,-0.0111576082423,-7.91470450572e-05,0.999912592114,0.0175431055851,0.0524878026632,0.00271191704361,0.214316931755,-0.136218520389,9.60106988646
3960899,-0.00655766045936,-0.0117870289814,-7.73023665147e-05,0.999909024392,0.0198910447032,0.0412835530115,0.00162715022616,0.226991847285,-0.126263263112,9.62584109203
3960979,-0.00588462600934,-0.0127612778615,-7.5102763805e-05,0.999901252786,0.0204484280512,0.0247701318069,0.000976290135699,0.245849544406,-0.113346923932,9.62945106757
3961059,-0.00548606165949,-0.0136684359175,-7.49940168483e-05,0.999891529799,0.0169516475068,0.0114565585925,0.000585774081419,0.263149666829,-0.105597120423,9.62275850676
3961139,-0.00443574655808,-0.0145796794368,-6.46792741023e-05,0.999883869715,0.0131508189343,0.00219134447939,0.000351464448852,0.280712345264,-0.0853849275275,9.62329195342
3961219,-0.00443635119719,-0.0165794274395,-7.3562998075e-05,0.999852707134,0.00789049136059,-0.00549623429576,0.000210878669311,0.319501531914,-0.0854680402568,9.63103404656
3961299,-0.00441828881194,-0.0185836537044,-8.21229331307e-05,0.999817543252,0.00473429481635,-0.0109601616838,0.0022549775089,0.358816195027,-0.0852784877283,9.64860799141
3961379,-0.0042273760679,-0.0210981366791,-8.92104131238e-05,0.999768468177,0.00284057688981,-0.0163669684239,0.00390712687411,0.407304690161,-0.0815734537209,9.64574482903
3961459,-0.00453471377846,-0.0239361901771,-0.000108575997012,0.999703197645,0.00340710637973,-0.0213138127138,0.00404703637031,0.460818644175,-0.0872512987951,9.617211873
3961539,-0.00513473319418,-0.0264973341958,-0.00013610632672,0.999635687273,0.00374702407369,-0.0234305391648,0.00242822182219,0.508968167706,-0.0985588713181,9.59338833474
3961619,-0.00585934727627,-0.0280563892813,-0.00016445969546,0.999589155615,0.00437666475152,-0.0204436744208,0.00315969333916,0.538097301991,-0.112286599646,9.57741827062
3961709,-0.00633942530723,-0.0295406410136,-0.000187356222967,0.999543459342,0.00518013921969,-0.0160974152057,0.0018958160035,0.566588110198,-0.121480917307,9.57645535812
3961779,-0.00746515952151,-0.0306433759457,-0.000228871558463,0.999502477497,0.00310808353181,-0.00965844912339,-0.00056527064375,0.588710418609,-0.143278079193,9.59096108108
3961859,-0.00792424556096,-0.0314910361976,-0.000249674384507,0.999472590237,-0.002817740557,-0.00324092910526,-0.00289330275502,0.605814526312,-0.152286233502,9.60301639719
3961939,-0.00898939471681,-0.0322553572681,-0.000290118839175,0.999439192018,-0.0072246151332,0.00188665309,-0.00343874189886,0.620625974088,-0.172774596547,9.6035458222
3962019,-0.00937495627773,-0.0329287639389,-0.00030888682757,0.999413683761,-0.00774028957162,0.00709165271447,-0.00206324513932,0.633104145244,-0.180039790887,9.5954837714
3962099,-0.00883430244338,-0.0320536403401,-0.000283328214804,0.999447066616,-0.00634693398882,0.0123431027965,0.000464813162258,0.617606712,-0.17003369753,9.61722217934
3962179,-0.00803526789062,-0.0300425932534,-0.000241517108586,0.999516292378,-0.00380816039329,0.0180481132144,0.00240733820466,0.579817252298,-0.154932075208,9.63529304759
3962259,-0.0077148505361,-0.0280621407613,-0.00021658697108,0.999576385489,-0.00228489623597,0.0231738797111,0.0014444029228,0.540623585021,-0.14850472364,9.61979935029
3962340,-0.00769759048952,-0.0264823454943,-0.000203927820249,0.999619623102,-0.00392507811036,0.0275264097934,0.000866641753679,0.508727678845,-0.147760774858,9.59350430011
3962419,-0.00810589806079,-0.0247251632424,-0.00020048753727,0.999661402938,-0.00576056735791,0.0314149980272,0.000519985052208,0.475224925178,-0.155694111399,9.59975392528
3962499,-0.00907381117599,-0.0246766600007,-0.00022398879085,0.999654279354,-0.00601048078352,0.0337481509675,0.000311991031325,0.473798045927,-0.174101062787,9.58937791059
3962581,-0.00901636811842,-0.0233380130312,-0.000210490010545,0.999686949974,-0.00530904871596,0.0351480427317,0.000187194618795,0.448521061443,-0.173174225319,9.59943287306
3962659,-0.00868280192845,-0.0215032583637,-0.000186758760872,0.99973105581,-0.00318542922958,0.0347109076058,0.00224076707859,0.413482996973,-0.166872038853,9.60594469088
3962739,-0.00872584091066,-0.0196464205781,-0.00017147116784,0.999768897524,-0.00191125753775,0.0323201762229,0.003047220493,0.377616107998,-0.167639710128,9.60290859675
3962819,-0.00924786186558,-0.0183772815517,-0.000169986540702,0.999788339439,-0.00114675452265,0.0274802169015,0.0018283322958,0.353701772953,-0.1779165397,9.6164098309
3962900,-0.00893765773439,-0.0165331357575,-0.000147793614893,0.999823360326,-0.000688052713588,0.0237248611858,0.00322544968479,0.318044777151,-0.171872208976,9.61253956309
3962980,-0.00904746765048,-0.0156198381165,-0.000141343010675,0.999837058729,-0.002115591874,0.0197688875105,0.00193526981087,0.300481302326,-0.173991694526,9.6130904444
3963059,-0.00954225525693,-0.0157484197795,-0.000150300926357,0.999830440649,-0.0012693551244,0.0118613325063,0.00116116188652,0.302393066063,-0.183164251335,9.5949856204
3963141,-0.00969222852009,-0.0153175318887,-0.000148485416706,0.999835692439,-0.00076161307464,0.00711679950377,0.000696697131915,0.293723897499,-0.185794743428,9.58220736467
3963219,-0.00963906999258,-0.0154412866167,-0.000148864308889,0.999834302691,-0.000456967844784,-0.000838201035282,0.000418018279149,0.296423261839,-0.184978837024,9.59273634385
3963301,-0.00948077014932,-0.0158780992535,-0.00015056235943,0.999828974521,-0.000274180706871,-0.00731396160456,0.000250810967489,0.30426780476,-0.181616251189,9.57559055509
3963379,-0.00956118076453,-0.0171667987529,-0.000164166564897,0.999806910304,0.00196394188319,-0.012902178192,0.000150486580494,0.328606984125,-0.182950582012,9.56458482134
3963460,-0.00960922128038,-0.0195033127342,-0.000187455963044,0.999763596316,0.00117836512991,-0.0162551081444,9.02919482961e-05,0.374095693161,-0.184230020838,9.58288107835
3963539,-0.00958074496119,-0.0213479952911,-0.000204585718429,0.999726177795,0.000707019077948,-0.0178411760544,5.41751689777e-05,0.409768624393,-0.183800583304,9.5885915889
3963619,-0.00978256765741,-0.0233615291375,-0.000228609078858,0.999679192573,0.000424211446769,-0.018367126739,3.25051013866e-05,0.448889475417,-0.187852483771,9.59728513889
3963698,-0.00981537934946,-0.0251250072791,-0.000246701252305,0.999636099526,0.000254526868061,-0.0186826971497,1.9503060832e-05,0.483135893502,-0.18860768289,9.60321952938
3963779,-0.00921696158422,-0.0265310029188,-0.000244631749502,0.999605469002,0.000152716120837,-0.0180206592732,1.17018364992e-05,0.510148088836,-0.17708979406,9.60199176035
3963858,-0.0088765655325,-0.0273430676169,-0.000242812894212,0.999586666718,9.1629672502e-05,-0.0159206763015,7.02110189951e-06,0.52611598587,-0.170657901094,9.60795886358
3963940,-0.00848780726826,-0.0275879481176,-0.000234258798238,0.999583316872,0.00175773804935,-0.013383616334,4.2126611397e-06,0.53090832077,-0.163207462824,9.60938434403
3964020,-0.00858158409096,-0.0273824765241,-0.000235081839661,0.999588165761,0.00105464282961,-0.00803016980043,2.52759668382e-06,0.527558797394,-0.165201544345,9.62053469944
3964100,-0.00811078685228,-0.0268627020078,-0.000217963483432,0.999606203897,0.000632785697766,-0.00481810188026,0.00170427680386,0.517408797723,-0.156102926119,9.6186057867
3964187,-0.00721675356825,-0.0260180629912,-0.000187834432364,0.999635405328,0.000379671418659,-0.0011881008823,0.00102256608232,0.500305470284,-0.138672746882,9.60356206943
3964260,-0.00724823018232,-0.0254443808886,-0.000184491311627,0.999649945032,0.000227802851196,0.00184127983939,0.000613539649389,0.489085793157,-0.139227966977,9.60028192306
3964340,-0.00701042218818,-0.0254217659035,-0.000178279314173,0.999652217531,0.000136681710717,0.00365890827241,0.000368123789633,0.489057751529,-0.134772695714,9.6083694822
3964420,-0.0074006895877,-0.0244680049542,-0.000181139305194,0.99967320346,8.20090264304e-05,0.00517517539368,0.0044777748884,0.471084414101,-0.142394600094,9.61657390002
3964499,-0.00652238606504,-0.0234881441284,-0.000153244284038,0.999702826885,4.92054158583e-05,0.00608493566644,0.00949770591643,0.451920705834,-0.125419927781,9.61120148356
3964579,-0.00671809325249,-0.0214965078967,-0.000144452186238,0.999746341081,2.9523249515e-05,0.00577941170717,0.0146381148406,0.413368002113,-0.129121494022,9.60702035303
3964668,-0.00738757282566,-0.0206714628748,-0.000152748747329,0.999759016493,1.7713949709e-05,0.0034676470243,0.0172966701336,0.397179564696,-0.141876921072,9.59948385122
3964739,-0.00777446006355,-0.0196827685347,-0.000153057177149,0.999776036404,-0.00169213187602,0.00208058821458,0.017614733125,0.378129115771,-0.149290757135,9.59855325263
3964819,-0.00850363203232,-0.0187739982247,-0.000159681092566,0.999787577306,-0.00314372943292,0.00124835292875,0.0122716001208,0.360713342265,-0.163315865414,9.5999102548
3964899,-0.00883099263652,-0.018669191455,-0.000164902665828,0.999786701085,-0.00401468796706,0.00074901175725,0.00736296007251,0.358643583972,-0.169576148887,9.59833025444
3964979,-0.00882732690561,-0.0186424129449,-0.0001645976943,0.999787233189,-0.00240881278024,-0.0012533531915,0.000160875428885,0.358119989495,-0.169501596315,9.59810051473
3965059,-0.00832955295348,-0.0189201746607,-0.000157630284286,0.999786287509,-0.00144528766814,-0.0041575324066,-0.0028833051729,0.363312496627,-0.159880058131,9.59437136841
3965143,-0.0083628994195,-0.0190886505005,-0.000159671143751,0.999782806334,-0.000867172600886,-0.00717711012004,-0.00172998310374,0.366667421072,-0.160571479703,9.59740112427
3965219,-0.00866557750298,-0.0189713718661,-0.000164433664105,0.999782460227,-0.00222306380638,-0.00984023687103,0.000664770383603,0.364131392584,-0.166253576298,9.58988159131
3965299,-0.00888698587027,-0.0194043512681,-0.000172485486787,0.999772205496,-0.00303659852968,-0.0118638029831,0.0033786926604,0.372186582133,-0.170381094753,9.58297566987
3965380,-0.00906469563967,-0.0198525427953,-0.000180000132461,0.999761809351,-0.00182195911781,-0.0139293227732,0.00628411621086,0.380850418518,-0.173815286491,9.58433878083
3965471,-0.00878125796397,-0.0213182941363,-0.000187251219578,0.999734157054,-0.00109317547068,-0.0151686346473,0.00377046972651,0.409751316785,-0.168693196553,9.60191605903
3965539,-0.00886884863563,-0.022570507155,-0.000200233301288,0.99970589457,-0.00065590528241,-0.0159122217718,0.00226228183591,0.433316780061,-0.170168925744,9.58995693034
3965629,-0.0091341154808,-0.0233419318205,-0.000213274914124,0.999685788969,-0.000393543169446,-0.0155069939235,0.00135736910155,0.448413738691,-0.175363926247,9.59547072192
3965699,-0.00985231016657,-0.0241424702854,-0.000237940016839,0.999659950432,-0.000236125901668,-0.0144124770917,0.000814421460927,0.464654518849,-0.189494254186,9.61242594634
3965788,-0.0094857915754,-0.024441767394,-0.000231929242966,0.999656223896,-0.000141675541001,-0.0129043868696,0.000488652876556,0.470328844122,-0.182410140158,9.61062807269
3965859,-0.00907044471825,-0.0248341296882,-0.000225335375452,0.999650410023,-8.50053246003e-05,-0.0111481526135,0.000293191725934,0.47828242244,-0.174568369251,9.6186473148
3965939,-0.00846872724931,-0.0246947905209,-0.000209204754093,0.999659144015,-5.10031947602e-05,-0.00966872199832,0.00230436534287,0.475393124118,-0.162920121892,9.6148397341
3966018,-0.00875779363397,-0.0240848450185,-0.000210999408417,0.99967153444,-3.06019168561e-05,-0.0079296835063,0.00393675957449,0.463364477987,-0.16838102211,9.60920330335
3966099,-0.00848580361961,-0.0235428660527,-0.000199842730052,0.99968679328,-1.83611501137e-05,-0.00475781010378,0.0023620557447,0.453274248315,-0.16327785643,9.61683477254
3966179,-0.00836406724676,-0.0232165605325,-0.000194244030239,0.999695451608,-1.10166900682e-05,-0.00285468606227,0.00141723344682,0.446980690347,-0.16093421752,9.61686467089
3966265,-0.00776959246926,-0.0223783344268,-0.000173919346095,0.999719367289,-6.61001404092e-06,-0.00171281163736,0.000850340068091,0.430754706933,-0.149472387202,9.61568550908
3966339,-0.00726714092591,-0.0213772079793,-0.000155390798746,0.99974505725,-3.96600842455e-06,-0.00102768698242,0.000510204040854,0.411921150576,-0.139961667184,9.62670960013
3966422,-0.00711445434621,-0.0210723331753,-0.000149955246951,0.999752628817,-0.00213082991236,-0.00274506249676,0.000306122424513,0.405648840248,-0.136888857,9.6175223238
3966498,-0.00730845648025,-0.0209743343546,-0.000153327837391,0.999753289693,-0.00298125819327,-0.00420117786683,0.000183673454708,0.403561395213,-0.140551834708,9.6127282185
3966580,-0.00774933441518,-0.0198403436159,-0.000153784348688,0.999773116728,-0.00178875491596,-0.00635191727326,0.000110204072825,0.382197634247,-0.149213965815,9.62469580561
3966660,-0.00775182970862,-0.0188798323119,-0.000146383737016,0.999791698125,-0.00107325294958,-0.00934512116296,6.61224436947e-05,0.363393873517,-0.149144000827,9.61727172775
3966741,-0.00848352918074,-0.0181706398982,-0.000154182160353,0.999798896682,-0.000643951769746,-0.0119924236197,3.96734662168e-05,0.349238575087,-0.162988391463,9.60347989456
3966824,-0.00899602964514,-0.0182750683251,-0.000164437175223,0.999792511619,-0.000386371061847,-0.0157092554011,2.38040797301e-05,0.351040463167,-0.172731546841,9.59759899631
3966900,-0.00916641347019,-0.0177276771826,-0.000162531591945,0.999800820118,-0.000231822637108,-0.0187907345928,-0.00168847779801,0.340868848213,-0.176183238407,9.60747798665
3966980,-0.0095654716718,-0.0175580827803,-0.00016798492806,0.999800073646,-0.000139093582265,-0.0227680724152,-0.00314153698612,0.337878341398,-0.184000337331,9.61508132202
3967059,-0.00941598830434,-0.0176390405323,-0.000166122212511,0.999800067922,-8.3456149359e-05,-0.0277086154773,-0.00358768243752,0.340154180132,-0.181507991705,9.6354450542
3967140,-0.0097064762524,-0.0175843903061,-0.000170716908741,0.999798251845,-5.00736896154e-05,-0.032801391622,-0.00215260946251,0.340562002708,-0.187913449808,9.67687255376
3967220,-0.0100857510672,-0.0160056871175,-0.00016145827393,0.999821018751,-3.00442137693e-05,-0.0409653380463,-0.00129156567751,0.310879175502,-0.195826867492,9.70532035599
3967301,-0.0107450756765,-0.0147917479017,-0.000158965022045,0.999832847166,0.00211042377905,-0.0484178462696,-0.000774939406504,0.287083975028,-0.208475783581,9.69820760055
3967378,-0.0113801823077,-0.0129257549111,-0.000147119267151,0.999851686335,0.00637453500497,-0.0597003921871,-0.000464963643902,0.251737880134,-0.221571797053,9.73224717386
3967459,-0.0111520378448,-0.0113035561297,-0.000126073581734,0.999873914939,0.0102100719249,-0.0703011302907,-0.000278978186341,0.220953416557,-0.217937237167,9.76871206896
3967538,-0.0108312227258,-0.00797007448399,-8.6333458714e-05,0.999909573448,0.0125113940769,-0.086026754505,-0.000167386911805,0.155795806038,-0.211686358414,9.77000087175
3967619,-0.011059241299,-0.00541426348612,-5.9882186329e-05,0.999924184799,0.0121894271222,-0.105678690509,-0.000100432147083,0.105448491923,-0.215357856308,9.73462170835
3967700,-0.0110213097461,-0.00334479786327,-3.68664986939e-05,0.99993366865,0.0124219370109,-0.123429512971,-0.0017630195341,0.0649450363161,-0.213969452554,9.70525392467
3967779,-0.0106158478914,-0.00160111435826,-1.69981661172e-05,0.999942368298,0.0125614429441,-0.147702088416,-0.00105781172046,0.0310661563112,-0.205953805322,9.6986465821
3967858,-0.0100222697703,-0.000998917260033,-1.00119260952e-05,0.9999492768,0.012645146504,-0.169502364727,-0.000634687032275,0.0193579542847,-0.194201232168,9.68702073124
3967939,-0.00986441320778,-0.000577301958614,-5.69502310312e-06,0.999951178829,0.0122696785785,-0.197055992604,-0.00208357246521,0.0111359322388,-0.190262150433,9.64245625466
3968019,-0.00986119954663,-0.00108919035158,-1.07412520433e-05,0.999950783935,0.0154499183149,-0.225507491051,-0.00295290372498,0.0210467693042,-0.190532323219,9.65929203893
3968099,-0.00942310216222,-0.00208795779391,-1.96759560787e-05,0.999953421511,0.0182094422796,-0.248963741041,-0.00177174223499,0.0404008008403,-0.18231472108,9.67250597165
3968179,-0.00845930561715,-0.0032311952268,-2.73347886982e-05,0.999958998549,0.0198651566585,-0.276659573002,-0.00106304534099,0.0625477070667,-0.163737210333,9.67684302879
3968259,-0.00772174870243,-0.00457769989041,-3.53492724749e-05,0.999959708194,0.0204328952243,-0.299236733039,-0.000637827204595,0.0887645397674,-0.149717661893,9.69357105287
3968339,-0.00757466081177,-0.00688413724696,-5.21477364464e-05,0.999947613852,0.0194964681794,-0.325553730905,-0.000382696322757,0.13322505931,-0.146573176482,9.6741591869
3968426,-0.00745258457656,-0.00973935929867,-7.25888578332e-05,0.999924796469,0.0176575417681,-0.35454032153,-0.0019323780395,0.189110631289,-0.144686485235,9.70584711736
3968500,-0.00689891367027,-0.0124482997335,-8.5888444535e-05,0.999898713594,0.0157028057984,-0.376614866581,-0.0011594268237,0.241795587758,-0.133977663846,9.70857930435
3968579,-0.00637668771676,-0.0154128400785,-9.82965433582e-05,0.999860876598,0.0153813443395,-0.400076155086,-0.00239841634007,0.298545679071,-0.12348222819,9.68053051596
3968659,-0.00638870972437,-0.0179821850038,-0.000114903885401,0.999817889522,0.0173169177715,-0.420538279112,-0.00314181004989,0.348158044649,-0.123649311279,9.67495399073
3968738,-0.00678136272431,-0.0211232042668,-0.000143279375224,0.999753871126,0.0197553320151,-0.446011945432,-0.00188508602993,0.409528925911,-0.131411006445,9.68621270572
3968819,-0.00788879464331,-0.0238654295591,-0.00018832897796,0.999684036445,0.0207926904997,-0.475343917253,-0.00113105161796,0.463350286455,-0.153066855332,9.69775633803
3968901,-0.00753840184116,-0.0264527106097,-0.000199486643758,0.999621621817,0.021840795652,-0.499328451267,-0.00280708127809,0.511684253904,-0.145709650553,9.66015036654
3968979,-0.00706491907504,-0.0283061756123,-0.000200066005512,0.999574313052,0.0228953488048,-0.522232972905,-0.00381269907416,0.54930376035,-0.136985764697,9.6900198
3969059,-0.00680675332948,-0.0312381202387,-0.000212738937326,0.99948877067,0.0205482502663,-0.541509656687,-0.00399037969035,0.606351968124,-0.131990853349,9.68998494763
3969138,-0.005651196352,-0.0344014463618,-0.000194527581784,0.999392098541,0.0123289501598,-0.562440848308,-0.00239422781421,0.660692186734,-0.108403772264,9.58485858332
3969220,-0.00690514815448,-0.0335476097391,-0.000231787219085,0.999413239398,0.00952582040318,-0.566911452113,0.00750295460218,0.647088225859,-0.133037590507,9.62688821762
3969299,-0.00602183902462,-0.0305748650903,-0.000184206380643,0.999514322632,0.010398082918,-0.561931393289,0.0176981646666,0.586971673308,-0.11549615904,9.58458951138
3969379,-0.00434022509203,-0.0311486021163,-0.00013525885271,0.99950533202,0.0160297211644,-0.558517667934,0.0174299397834,0.588969548174,-0.081986964223,9.43997904496
3969463,-0.00230939155008,-0.0319112002753,-7.37332049242e-05,0.999488037233,0.0177059438664,-0.565408924011,0.01045796387,0.600942180565,-0.0434460945494,9.40133621848
3969539,1.43200949924e-05,-0.0411789669228,5.90187322876e-07,0.999151786506,0.0106235663199,-0.584017139747,-0.00266471296869,0.773565094716,0.000268561532068,9.36881313612
3969619,0.000148525172944,-0.0517207259935,7.69212509393e-06,0.998661576503,-0.00299104156025,-0.599864659865,-0.0194778103626,0.975779951605,0.00279475874541,9.39526795858
3969699,-0.0020922001156,-0.0606127888553,-0.000127047959599,0.998159153835,-0.0141396367185,-0.61363007255,-0.0338225694136,1.14164101662,-0.0392639931414,9.36541160034
3969785,-0.00414947193882,-0.0716796417687,-0.000298202313253,0.997419030255,-0.0191260335677,-0.633382951821,-0.0488147757661,1.34434774718,-0.0774279332384,9.30464157568
3969858,-0.00418453724512,-0.0787441306797,-0.000330537032476,0.996886022711,-0.0140297605094,-0.643531919138,-0.0569587194547,1.49158974328,-0.0787784823551,9.38238298008
3969939,-0.0043444380705,-0.0846342174039,-0.000369015631945,0.996402548637,-0.00841785630563,-0.647067159159,-0.0571624949918,1.61321434401,-0.0822224336514,9.42735188155
3970019,-0.00236947442382,-0.0874389100457,-0.000207981444748,0.996167043896,-0.00505071378338,-0.647059852864,-0.046216818716,1.69193518844,-0.0455027375346,9.56350881814
3970100,-0.00240123111574,-0.0906141730155,-0.000218485040865,0.995883154794,-0.00303042827003,-0.644075638657,-0.0336897520901,1.77651724099,-0.046694675968,9.68135542516
3970179,-0.00322509282846,-0.0955395110956,-0.000309541378332,0.995420365866,-0.00479808739225,-0.627811648043,-0.0168083307623,1.92542874059,-0.0644086708152,9.9378534382
3970259,-0.0034761280969,-0.100953759432,-0.000352732431826,0.994884983589,-0.00713575304997,-0.61081652263,-0.00284826741255,2.082052707,-0.0709669249012,10.1532832287
3970339,-0.00503173546846,-0.10805224509,-0.00054689933744,0.994132332675,-0.0115181828748,-0.586145985292,0.0131901917036,2.27754123724,-0.104829398105,10.3529306318
3970419,-0.00775515325858,-0.111567769145,-0.000870687681158,0.993726185822,-0.0167017811385,-0.540693978465,0.0253674075421,2.36011843131,-0.162017587593,10.3769510073
3970499,-0.00958761933197,-0.115451742804,-0.00111441159349,0.993266193286,-0.0181091798509,-0.496820861971,0.0322480469838,2.43408560468,-0.199442963445,10.327198628
3970579,-0.00869998703836,-0.119258598291,-0.00104504693201,0.992824558941,-0.0151224085252,-0.449638179063,0.0359507405873,2.48301489186,-0.178563138907,10.1848197225
3970660,-0.00914754203033,-0.124121585521,-0.00114430532012,0.992224190921,-0.0137560357912,-0.411963387966,0.0373209766265,2.56863620318,-0.186385958295,10.1044202026
3970741,-0.00854741624187,-0.12948958227,-0.00111624105865,0.991543314114,-0.0133619022123,-0.365945559928,0.0347375977583,2.68225823314,-0.174080818141,10.0928117761
3970819,-0.00861635039656,-0.13442005523,-0.00116886297359,0.99088629066,-0.0101455916347,-0.322158640769,0.0285049797613,2.79687896332,-0.176035120523,10.1174501821
3970899,-0.00839725370304,-0.137761109743,-0.00116799362326,0.990429199168,-0.0060873549808,-0.289926828413,0.0239140288402,2.87546762824,-0.1719404583,10.1351062677
3970982,-0.0092317766856,-0.139093872145,-0.00129674587548,0.990235319245,-0.00833500366456,-0.247600477681,0.021585148349,2.89843939042,-0.188637274248,10.1119416757
3971059,-0.00950235101952,-0.13980358406,-0.00134170163469,0.990132750214,-0.00968359287482,-0.206028444906,0.0180593697469,2.89857549827,-0.193148699998,10.0578203326
3971139,-0.00979770418752,-0.142200776743,-0.00140761523056,0.989788342377,-0.00197894517173,-0.148307090508,0.00700441129499,2.90153020496,-0.195855555448,9.88768093122
3971220,-0.0109888743266,-0.144045232536,-0.00159967750125,0.989508795644,0.0103062645564,-0.0860044238748,-0.00686529482102,2.90665491131,-0.217112122331,9.7695561393
3971299,-0.0125721122387,-0.146330788329,-0.00185985898667,0.989154074604,0.0181030804548,-0.0375548822966,-0.0160384986135,2.93391117188,-0.246625474082,9.69604764232
3971379,-0.0128913604596,-0.146792868425,-0.00191324979845,0.989081395073,0.0193756495021,0.00556261467853,-0.0185625904588,2.9737281045,-0.25547493899,9.79439754291
3971459,-0.0131348549448,-0.14785436294,-0.00196380462498,0.988919969672,0.0192878108076,0.0373927737241,-0.0187999753816,3.00456144888,-0.261024038101,9.81988866002
3971543,-0.012987580104,-0.14858200236,-0.00195155292317,0.988812875512,0.023917698267,0.0816065827777,-0.0172396460894,2.98116292646,-0.254776690927,9.69248891135
3971619,-0.0130836583617,-0.148219642929,-0.00196109000268,0.988865971434,0.0318039114801,0.139635932758,-0.0128979280224,2.9304925276,-0.252943643951,9.55260271815
3971699,-0.0139539193467,-0.149769489653,-0.00211392742966,0.988620209896,0.0373870195309,0.185947174406,-0.00773875681346,2.92355346456,-0.266209025726,9.42389943118
3971778,-0.0130915587819,-0.146554234894,-0.00193973918577,0.989114100969,0.0407368843614,0.228207381484,-0.00294049384223,2.88515294299,-0.252141599518,9.51905997853
3971860,-0.0129842937979,-0.14690063426,-0.00192849067924,0.989064149938,0.0418954231368,0.259523166591,-6.15360594889e-05,2.90161695745,-0.250883748773,9.54934124835
3971939,-0.0133946164382,-0.143494886436,-0.00194233990261,0.989558502127,0.0400364060333,0.291509029561,0.00166583861015,2.82027628287,-0.257790483639,9.51651351488
3972019,-0.0110156047786,-0.140773423837,-0.00156640080793,0.989979315936,0.0384953057097,0.331133670293,0.0031279534734,2.72239074409,-0.208783247703,9.37662795146
3972100,-0.00812536474936,-0.139755795877,-0.00114686110692,0.990151998774,0.037996335577,0.365550706269,0.00400522239135,2.66389884098,-0.151845587049,9.24744620203
3972180,-0.00727282646003,-0.13575549062,-0.000996579186813,0.990715175816,0.0347171230671,0.400248699883,0.00240313343481,2.62042399331,-0.137794284603,9.38110573879
3972271,-0.00617387073245,-0.132399246334,-0.000824692175267,0.991176897821,0.0284926949466,0.426175776789,0.00144188006089,2.57805851342,-0.118110755332,9.47710319181
3972343,-0.00624678177403,-0.127298167991,-0.000801742486861,0.991844499583,0.017095616968,0.452374274469,0.000865128036532,2.47458825136,-0.1194687469,9.48083212627
3972420,-0.00343635874176,-0.123582716421,-0.000427957740298,0.992328232236,0.0102573701808,0.483418215289,0.00222183706777,2.36414322059,-0.0647380633257,9.34420579065
3972502,-0.0005888678402,-0.118946010742,-7.05443064859e-05,0.992900546272,0.00828287241577,0.508855620765,0.00516431279382,2.26794868138,-0.0110700987376,9.32998589627
3972589,0.000251282199437,-0.112676592478,2.84950877332e-05,0.993631683046,0.0079495538797,0.528374964665,0.00480134792214,2.20257051254,0.00485010872617,9.58673150358
3972665,-0.000925521671977,-0.102910292165,-9.57541404236e-05,0.994690206048,0.00732387269659,0.54732330205,-0.00478161235303,2.04052106607,-0.0181589093737,9.75586233843
3972739,-0.000974778500039,-0.0955997669039,-9.36174240059e-05,0.995419371728,0.0095026043555,0.568908865956,-0.0143625990713,1.88391519701,-0.0190356312687,9.71751946238
3972819,0.000102339514092,-0.0866122089091,8.89728651886e-06,0.996242096438,0.0180465743957,0.599739186881,-0.0218139513481,1.69346534868,0.00198615053563,9.66578331683
3972900,0.00195060583643,-0.0794505831359,0.000155468535991,0.996836885255,0.0240243365427,0.621217209866,-0.028838903083,1.5698580532,0.0383018160538,9.78557633409
3972978,0.00427162699472,-0.0734972376415,0.000314807100683,0.997286222786,0.0242054733393,0.632826953473,-0.0415676753531,1.49090527259,0.0861880134604,10.0597621847
3973059,0.00468399054993,-0.0692386783187,0.000325097100083,0.997589073702,0.0221857051099,0.644475390313,-0.0513333890225,1.41169072215,0.0950478581251,10.1203653431
3973139,0.00387838247856,-0.0613899300795,0.000238545363535,0.998106295807,0.0158655634347,0.668492054876,-0.0529359166095,1.23319916107,0.0776188491524,9.9867389202
3973220,0.00468848579436,-0.0535615993777,0.000251486570918,0.998553508795,0.00355967720035,0.672685492138,-0.044957941871,1.07391062824,0.0937370821965,9.98126215827
3973299,0.00482725427324,-0.0495163808694,0.000239324536492,0.998761617387,-0.0102092054622,0.664984993021,-0.0363399464748,0.994378659656,0.0967042573745,10.0033546387
3973379,0.00390470798759,-0.0482058819995,0.000188450422713,0.998829770623,-0.0295384766577,0.654830722751,-0.0235067281307,0.949053680169,0.0766973273739,9.80903284304
3973459,0.00202274086332,-0.0484137327154,9.80436058866e-05,0.998825314753,-0.0428387996209,0.653846441327,-0.0102728263253,0.925928835299,0.0385963712779,9.52891579225
3973538,0.00177233565374,-0.0431599957909,7.65654656957e-05,0.999066598244,-0.0512446834603,0.653255872472,0.00830976629454,0.81030035782,0.0332134697394,9.36084556178
3973619,0.000877196847959,-0.0368033503204,3.23056815699e-05,0.999322141698,-0.060119424317,0.632894098271,0.0177565616206,0.696391120454,0.0165761995194,9.4417233295
3973699,4.49366380545e-05,-0.0326852624417,1.46955099936e-06,0.999465693057,-0.0658699588926,0.613865992767,0.0195934282631,0.617271670563,0.000847753403054,9.42752190663
3973783,-0.000646721271899,-0.0285546954213,-1.84744661142e-05,0.999592022167,-0.0612321684701,0.605003269833,0.0168643376954,0.52766205141,-0.011941196591,9.2281831806
3973859,-0.000287270020068,-0.0257206493818,-7.39121701031e-06,0.99966912807,-0.0550439737249,0.599259946011,0.0135241231089,0.470304977428,-0.00524935662646,9.13347964225
3973940,-0.00160053569712,-0.0215395573817,-3.44828748246e-05,0.999766715071,-0.0513310568778,0.574955138706,0.00258050306635,0.400217128303,-0.0297252524036,9.28375596284
3974019,-0.00311720362945,-0.0186449323132,-5.81304381731e-05,0.999821307115,-0.0461234763393,0.552709833217,-0.0129251602499,0.344517469364,-0.0575788990008,9.23386095807
3974099,-0.00332566082641,-0.0161518843065,-5.37229942914e-05,0.999864017618,-0.0387420274016,0.543193860477,-0.0218028681782,0.295774783376,-0.0608835576622,9.15220919936
3974178,-0.00335761808717,-0.012657123013,-4.25014293497e-05,0.99991425724,-0.0313333276087,0.526842025296,-0.0241496625049,0.2361228107,-0.062626932693,9.32516063802
3974259,-0.0044213269969,-0.0109371302346,-4.83599944535e-05,0.999930411934,-0.0311450083476,0.504260222344,-0.025557739101,0.208471912738,-0.0842630919889,9.52829087012
3974338,-0.00380498598326,-0.00748445309025,-2.84792429515e-05,0.999964751495,-0.0395458180202,0.480920269159,-0.0242741347513,0.141842559264,-0.0721056701347,9.47467402769
3974420,-0.00518500088043,-0.00404716896753,-2.09850286156e-05,0.99997836764,-0.0450119938852,0.466064917125,-0.0124360305435,0.0760075692498,-0.0973723596004,9.38935264537
3974500,-0.00649677993249,-0.0011756678142,-7.63822154094e-06,0.999978204561,-0.050845839773,0.448637904675,-0.00107626740415,0.0221413652804,-0.122348600086,9.41549252961
3974579,-0.00851374581454,0.000818230926936,6.96646494455e-06,0.999963422622,-0.0632856385964,0.417322884194,0.00829373084822,-0.0156850209197,-0.163191722308,9.5829688454
3974659,-0.0106805726655,0.0024395621516,2.60574846771e-05,0.999939984812,-0.0716008980133,0.395554041475,0.0160441801069,-0.0467605584502,-0.204696427428,9.58098280382
3974744,-0.0114183968149,0.00438957336158,5.01256412986e-05,0.999925171874,-0.0697790126801,0.382918425905,0.0270798005841,-0.0831229732537,-0.216191721203,9.46486949919
3974819,-0.0115403448033,0.00753921549893,8.70134142415e-05,0.999904982036,-0.0618748404968,0.362566354719,0.0307213424402,-0.144205329362,-0.220694695808,9.55968317046
3974899,-0.0116376359326,0.0073725049215,8.58066714454e-05,0.999905097616,-0.0554295769409,0.343969761086,0.0286493669392,-0.142308096299,-0.224593581401,9.64721715447
3974979,-0.0128372228679,0.00900445403858,0.000115606397275,0.999877048517,-0.0443256877626,0.33110904466,0.0171896201635,-0.171815537711,-0.244889425208,9.53549531099
3975059,-0.0141935374811,0.00906042356382,0.000128617698436,0.999858207786,-0.0321293834566,0.323818304866,0.0103137720981,-0.169648128779,-0.265686057468,9.35617414705
3975139,-0.0148974072782,0.00953622819123,0.000142087306034,0.99984354147,-0.0192776300739,0.309227299514,-0.0031769180933,-0.178882170724,-0.279361137655,9.37260109467
3975219,-0.0148192843937,0.00908697984268,0.000134682890862,0.999848887316,-0.0115665780444,0.291107514951,-0.0168053030072,-0.173888108587,-0.283496042944,9.56154354743
3975302,-0.0150728546257,0.00834035305497,0.00012573158708,0.999851604867,-0.0103454673183,0.268316322492,-0.0288135445086,-0.159878343668,-0.28885002811,9.57818327201
3975379,-0.0148844532193,0.00865110978774,0.000128786126786,0.999851786399,-0.00620728039099,0.253364536833,-0.0296331384876,-0.162006972021,-0.278654889913,9.35712664656
3975459,-0.014409097443,0.00965639200011,0.00013916083072,0.999849545001,-0.00372436823459,0.241413635007,-0.0275707545062,-0.178846459824,-0.26679172301,9.25442019204
3975539,-0.0141928607557,0.00861811788857,0.000122332613363,0.999862128387,-0.00776859173976,0.22232377219,-0.0233534936871,-0.162374514078,-0.267335268181,9.41473881322
3975625,-0.0156077267202,0.00765001433413,0.000119417374766,0.999848919531,-0.0127492662116,0.208315714131,-0.017417616704,-0.145787581982,-0.29734949587,9.52194331357
3975699,-0.0168910332259,0.00728389629704,0.00012305335536,0.99983079704,-0.0110550802187,0.202890709726,-0.00321383897752,-0.136553683222,-0.316555133313,9.36623888121
3975782,-0.0172023015662,0.00910430341265,0.000156644646672,0.999810566029,-0.0045045978239,0.19580449653,0.0104167083959,-0.170278251193,-0.321614171296,9.34344517076
3975858,-0.0154659131495,0.00890919015554,0.000137810715287,0.999840693745,-0.000148618325566,0.186018797814,0.0164665865126,-0.168725756868,-0.292806712006,9.46240771647
3975939,-0.0154024455172,0.00752351127746,0.000115897502156,0.999853063214,0.00374203955782,0.172910647539,0.0162653028295,-0.144331084004,-0.295394110212,9.58549999976
3976019,-0.0151005104371,0.00636441693745,9.61188511565e-05,0.999865720756,0.00948195477955,0.16674851762,0.0169959127426,-0.121553994641,-0.288327423158,9.54347600938
3976099,-0.0157256504441,0.00542877791978,8.53828806462e-05,0.999861602922,0.0210140150804,0.165605380037,0.016157208506,-0.101902236872,-0.295100738563,9.37915849869
3976181,-0.0136956308695,0.00482986136244,6.61549748547e-05,0.999894543318,0.0270818711379,0.15683138632,0.00799156485775,-0.0922659637054,-0.261575761741,9.54680321689
3976259,-0.0119622266222,0.00321260885333,3.84329033993e-05,0.999923288458,0.0285941344652,0.147310089474,0.000538038300032,-0.0625421832037,-0.232841649672,9.73022942525
3976339,-0.0114405631371,0.00166347029488,1.90323088497e-05,0.999933170777,0.0277987322156,0.14244869149,-0.00478545775753,-0.0322580662699,-0.221826106746,9.692802328
3976420,-0.0112752656216,0.000198445592521,2.23766905494e-06,0.999936412478,0.0281728709889,0.144214443376,-0.0075538653306,-0.0037925289709,-0.215456201157,9.55255134797
3976500,-0.0108096442532,0.00180785952841,1.95434921514e-05,0.999939939623,0.0266945940069,0.151659245429,-0.00878921981298,-0.0343578196286,-0.205409333487,9.49952538154
3976579,-0.00895724036598,0.00324793895943,2.9093890586e-05,0.999954607915,0.0185708967729,0.150166465801,-0.00995612256387,-0.0627526409959,-0.173044994624,9.65828825383
3976665,-0.0104453668823,0.00127047896188,1.32713535955e-05,0.999944638476,0.0111425380638,0.147568037778,-0.00937919403002,-0.0244834754667,-0.201271004343,9.63287821353
3976739,-0.0103095191279,9.34664338321e-05,9.63645204069e-07,0.999946851127,0.00923966320703,0.155799852378,-0.0034990661107,-0.00176139631518,-0.194264593572,9.42011055238
3976819,-0.0106596916927,-0.00185145417115,-1.97370858664e-05,0.999941469638,0.0110777687232,0.164995841752,0.00300884107112,0.0341379266152,-0.196525091593,9.21655376307
3976901,-0.00816664443815,-0.000493052611982,-4.0267201423e-06,0.999966530841,0.0164375326476,0.163702394394,0.00776496550314,0.00923000816638,-0.152870399194,9.3585001326
3976979,-0.0067054973786,-0.00155835538531,-1.04497955739e-05,0.999976303581,0.0222075313709,0.156115284995,0.00806449979358,0.0297194416674,-0.127874684585,9.53440819723
3977063,-0.00641277036757,-0.00261892919985,-1.6794994507e-05,0.999976008364,0.0277979809123,0.154542849786,0.00866991042931,0.0499139672465,-0.122214642294,9.52838323865
3977139,-0.0071643189439,-0.00323605400196,-2.31848394129e-05,0.999969099498,0.0366862214361,0.164241640197,0.0128643673639,0.0605941615979,-0.134141507544,9.36100486995
3977219,-0.0061693436491,-0.00184818893433,-1.14023491329e-05,0.999979261418,0.0432962359347,0.171337984628,0.0149553514632,0.0344411356306,-0.114961408433,9.31660216758
3977299,-0.00492564245779,-0.00033136631069,-1.63221185907e-06,0.999987814046,0.0455594843881,0.171338890672,0.0111016611852,0.00629947141744,-0.0936371221593,9.50472043507
3977379,-0.00572049916765,-0.000949336737992,-5.43077132614e-06,0.999983187168,0.0452146732143,0.175170644852,0.00836375695698,0.0181448928114,-0.109333550151,9.55582099273
3977459,-0.0059560017811,-0.00121731311913,-7.25045308029e-06,0.999981521899,0.044156406387,0.183855048282,0.00884946472735,0.0230973641536,-0.113005322962,9.48616427777
3977539,-0.00580628047877,1.48583029919e-06,8.6272928877e-09,0.99998314341,0.0392645456761,0.197579491569,0.0112693396969,-2.79511367237e-05,-0.109222882498,9.40510534156
3977619,-0.00575454507117,0.00188206264852,1.08306128487e-05,0.999981671299,0.0346266690037,0.204111397295,0.0118698845557,-0.0354509552523,-0.108389939215,9.41728270201
3977703,-0.0055498023647,0.00315579896335,1.7514417494e-05,0.999979619952,0.0297154926929,0.205050710301,0.0101017611636,-0.060535480378,-0.10645365225,9.59026787316
3977779,-0.00557031400268,0.00298266892955,1.66147341785e-05,0.999980037307,0.0233632664147,0.214979479456,0.00946657718988,-0.0571508426701,-0.106728401067,9.57961613649
3977869,-0.00511149808093,0.00142170713122,7.26715555413e-06,0.999985925543,0.017849170402,0.225619331626,0.00951115686709,-0.0268684804556,-0.0965981832182,9.44872660816
3977951,-0.00420149656698,0.00321856876702,1.35229950292e-05,0.999985993931,0.0158177829787,0.235408763419,0.00953790467341,-0.0601743988202,-0.0785490442083,9.3474479754
3978019,-0.0032261262175,0.00584804866237,1.88669639236e-05,0.999977695792,0.018430161078,0.242985182741,0.00572274280405,-0.111043151255,-0.0612552163199,9.49330039901
3978099,-0.00226382653443,0.00666335787432,1.50850599163e-05,0.999975236955,0.0204232779989,0.248382414457,0.00343364568243,-0.127917453253,-0.0434568944404,9.59781068496
3978181,-0.00238311890892,0.00655738460241,1.56274076054e-05,0.999975660307,0.0216191481515,0.25545196404,-0.00219671320516,-0.125113345487,-0.0454671701115,9.53913083236
3978259,-0.00172378345308,0.00654953294117,1.12902354423e-05,0.999977065768,0.023188050366,0.263950594404,-0.00557492853772,-0.123670300993,-0.0325475457192,9.44047657681
3978339,-0.00157086147372,0.00950798116038,1.49364148827e-05,0.999953564155,0.0275349121864,0.275860813606,-0.00632478755287,-0.177631692315,-0.0293447542382,9.33986433476
3978419,-0.00340699488857,0.0119068597399,4.0569721736e-05,0.999923305775,0.0322714795859,0.285135395434,-0.00677470296195,-0.222218955574,-0.0635755244179,9.32929638406
3978499,-0.00441354525592,0.0118566590159,5.23340896804e-05,0.999919965555,0.0342620399027,0.291125834593,-0.00576758202302,-0.224071616265,-0.0833957260277,9.44673583947
3978579,-0.00458637550627,0.0117230467054,5.37705548817e-05,0.999920763083,0.0294967152323,0.296848548395,0.00122204146227,-0.222789011019,-0.087147561349,9.49972184059
3978660,-0.00510782025828,0.0116006586927,5.92588401891e-05,0.999919662462,0.0249347601843,0.301984936923,0.0100984062295,-0.219385826045,-0.0965812675223,9.45322304698
3978745,-0.00542704313005,0.0158503004025,8.60323390603e-05,0.999859644039,0.0217718970939,0.308472290531,0.0209581958889,-0.296591990012,-0.101523230728,9.35182177985
3978819,-0.0068171478251,0.0190051752742,0.000129587507549,0.999796135727,0.0190227991168,0.315770223187,0.0291768299304,-0.357520318519,-0.128191005087,9.39967777494
3978899,-0.00688574745734,0.0197042469762,0.000135708035005,0.999782131625,0.0148191999618,0.320574672843,0.0345337004167,-0.373726601512,-0.13054472024,9.47675424553
3978981,-0.0063194750008,0.0210766404622,0.000133225558868,0.999757881546,0.00676306966977,0.326011483005,0.0368964425856,-0.403561665253,-0.120943621695,9.56633517793
3979058,-0.00520666570438,0.0221291044518,0.000115248634462,0.999741556647,-0.000624748874221,0.330976329348,0.0370370177025,-0.423617484991,-0.0996206517766,9.56381999836
3979138,-0.00347210578661,0.0264530561693,9.18805167892e-05,0.999644022569,-0.00931434061524,0.337786447707,0.0311617019122,-0.503167463651,-0.0659973153824,9.50030106762
3979219,-0.00264327224214,0.0294647297044,7.79174048378e-05,0.999562322591,-0.0145280956598,0.344426659091,0.0246566820078,-0.556643534831,-0.0498934563681,9.43345928925
3979300,-0.00218401607449,0.0322603101355,7.04938963137e-05,0.999477112041,-0.0172306586251,0.354796136843,0.016922459512,-0.60548858916,-0.0409494014576,9.3696516258
3979379,-0.00192157267062,0.0344491895575,6.6236058061e-05,0.999404601005,-0.0188521964043,0.363571963864,0.0101534757072,-0.651555033379,-0.0363012290093,9.43982436293
3979460,-0.00170046416593,0.0356073675525,6.0587561531e-05,0.999364408075,-0.0193994290104,0.36713469983,0.00396363511701,-0.677518958748,-0.0323152247103,9.49557495467
3979550,-0.000252457657837,0.0387506285306,9.79024656475e-06,0.999248880389,-0.0171736282052,0.365866820918,0.000675420824355,-0.735474683354,-0.00478450469921,9.46845200772
3979623,0.00016606869193,0.0433987026204,-7.21396263679e-06,0.999057818637,-0.0103041769231,0.364680403509,0.000405252494613,-0.815498529495,0.00311480133086,9.36886002177
3979699,-2.82925912782e-05,0.0466775378624,1.32206954414e-06,0.998910009289,-0.00618250615388,0.363968553064,0.000243151496768,-0.868540660666,-0.000525320861638,9.2731918053
3979782,-0.000958806299129,0.0495465594864,4.75639926618e-05,0.99877135365,0.000121706860828,0.364818512981,0.000145890898061,-0.921674334144,-0.0177928646361,9.26678737078
3979858,-0.00206159851428,0.0518901638176,0.000107121227132,0.998650664264,0.00390423466966,0.364477108809,8.75345388364e-05,-0.970313949851,-0.0384484580395,9.31178642393
3979939,-0.00283201079394,0.0537052239986,0.000152314202326,0.998552805529,0.00404530104764,0.357886915383,5.25207233018e-05,-1.01242640824,-0.0532360157417,9.3847545277
3980020,-0.00293846197071,0.0555389884877,0.000163452199841,0.998452181871,0.00242718062858,0.350101588775,3.15124339811e-05,-1.05038315207,-0.0554047857145,9.41225481867
3980101,-0.00191880703358,0.0579683462906,0.000111417634227,0.998316571331,-0.00152352205308,0.341173492195,-0.00338661303131,-1.09470501331,-0.0361159134209,9.39451790951
3980179,-0.00220966837031,0.0601208230706,0.000133088150004,0.998188652654,-0.00900222439963,0.334965254125,-0.00926869886364,-1.12776247454,-0.0413020016658,9.32809086534
3980259,-0.00335425656421,0.0612623772923,0.000205877596493,0.998116039199,-0.0160435861763,0.330814621221,-0.013649330486,-1.1389778253,-0.0621307468979,9.24322364762
3980339,-0.00465984208013,0.0630318399085,0.000294306858776,0.998000594395,-0.0249509939184,0.32577010111,-0.0158520193979,-1.17276151452,-0.086359582172,9.24689111484
3980419,-0.00512005407212,0.0641352578846,0.000329057787414,0.997928026194,-0.0315725087481,0.320189248674,-0.0163222526221,-1.19374998854,-0.094911379186,9.24837333468
3980499,-0.0043555363247,0.0668790239031,0.000291950456212,0.997751542334,-0.0342683474615,0.310455386291,-0.0149016323108,-1.25494536666,-0.0813676844452,9.31869451472
3980579,-0.00298001879432,0.0697265338097,0.000208294271268,0.997561670567,-0.0303518798905,0.299081098062,-0.00894097938649,-1.32230837478,-0.0562426358136,9.41260197861
3980659,-0.00229763740349,0.0722224632187,0.000166375958302,0.997385887702,-0.0254478589792,0.290553764879,-0.0053645876319,-1.37637312912,-0.0435618082948,9.45386298648
3980739,-0.00221067542043,0.0739939287303,0.000164026611109,0.997256228118,-0.0208026861865,0.284585984846,-0.000664612210365,-1.4033053179,-0.0416993957679,9.40439933974
3980828,-0.00241857415373,0.0759981569248,0.000184340843365,0.997105007841,-0.0188669626338,0.282282387011,0.00300675316548,-1.43382984113,-0.0453703515721,9.35125797543
3980902,-0.00341070847169,0.0783172998377,0.000267942039451,0.996922612754,-0.020259668871,0.284305748801,0.00648664257537,-1.46962222719,-0.0636140761776,9.2956705604
3980979,-0.00416798596986,0.0804281761573,0.000336315986651,0.996751635697,-0.024500813105,0.287222526121,0.00729750603692,-1.5131243141,-0.0779121932652,9.31475112775
3981059,-0.00496541104574,0.0828737734293,0.000412927943914,0.996547596385,-0.0278968797683,0.28812121239,0.00735833405238,-1.54999947371,-0.0922371475021,9.25437341835
3981139,-0.00548076282333,0.0841197003363,0.000462687071826,0.996440476484,-0.0273803793975,0.28227507323,0.00909759110751,-1.57332167031,-0.101789800708,9.25142619578
3981220,-0.00580269105076,0.0858620683997,0.000500086371371,0.996290009937,-0.0245163388063,0.274510489119,0.0105668354021,-1.61341178637,-0.10823965313,9.29035929047
3981299,-0.00683513511791,0.0858568519186,0.000589032107888,0.996283862635,-0.0193923939599,0.263466387731,0.0101713117944,-1.62764962919,-0.128629556038,9.37261650812
3981379,-0.00736459018646,0.0868121703317,0.000641776561557,0.996197268625,-0.0141895767447,0.249177505791,0.00865692744541,-1.6445720407,-0.138469296123,9.36331289804
3981459,-0.0072814959878,0.0872163532311,0.000637511928642,0.996162577657,-0.0110678864156,0.23549589589,0.00774829683602,-1.64131795831,-0.135993434363,9.30050931231
3981539,-0.00678414925565,0.088296786459,0.000601381449887,0.996070926772,-0.0121747026484,0.217921748597,0.00464897810161,-1.66067390365,-0.126607051829,9.29251526146
3981619,-0.0067537439536,0.0891469751251,0.000604496610896,0.995995400769,-0.0158186228183,0.20397173973,0.00108662661512,-1.67324515151,-0.125763625629,9.27143825966
3981699,-0.00697103420788,0.0904229719991,0.000632950111329,0.99587885317,-0.0218361854734,0.190493453672,-0.00445630476847,-1.69754731186,-0.129806553063,9.27004480638
3981779,-0.00768601528028,0.0909653905223,0.000702093220241,0.995824146103,-0.0275751733737,0.175595441054,-0.00735637353717,-1.69512977627,-0.14204853633,9.20001630644
3981859,-0.00742227968408,0.0918435464053,0.000684601088418,0.99574555187,-0.0322956362983,0.161548352745,-0.00824503467546,-1.71187518754,-0.137183297823,9.19989773552
3981939,-0.00833764162572,0.0927628587012,0.000776800208511,0.995653018054,-0.0325737736843,0.142903538285,-0.00750116117405,-1.73509054343,-0.154614868831,9.22951469356
3982020,-0.00920360916194,0.094067945797,0.000869658191852,0.995522857019,-0.0301865157471,0.127885439056,-0.00662914701174,-1.7614696056,-0.17081989542,9.23603212058
3982107,-0.00996256349097,0.0945039916462,0.000945782455541,0.995474182682,-0.0266257106775,0.109935088227,-0.00568024845289,-1.76700197576,-0.184613054195,9.22078896351
3982180,-0.010069976536,0.0956522844632,0.000967703111662,0.995363400774,-0.021935087267,0.0893740063169,-0.00340814907173,-1.80551616226,-0.188339966306,9.30549577435
3982263,-0.0107709059649,0.0954566378823,0.00103293200904,0.995374779126,-0.0169922629133,0.0749089068632,-0.00204488944304,-1.80731627939,-0.202068281541,9.33405378541
3982339,-0.0121117820012,0.0969830778885,0.00118028955688,0.995211632899,-0.0140265683012,0.067081227314,-0.00122693366582,-1.82778938311,-0.22610700164,9.28630572706
3982419,-0.0121325817988,0.0962392164869,0.00117316327773,0.995283596447,-0.0135242217182,0.0628103096459,-0.000736160199495,-1.81086398509,-0.226165023738,9.273458623
3982504,-0.012687915676,0.0968930306931,0.00123528370997,0.995213158812,-0.0153512640758,0.0559908584304,-0.000441696119697,-1.83063626703,-0.237452584799,9.30932483078
3982580,-0.0121949088187,0.0969053307576,0.00118742974479,0.995218182652,-0.0168731795518,0.0489193572709,-0.000265017671818,-1.83627471188,-0.228902230811,9.33706947977
3982659,-0.0127131314131,0.0966882020924,0.00123509782967,0.995232757901,-0.0190633990218,0.0421223162064,-0.000159010603091,-1.82648966966,-0.237897808213,9.30846585778
3982739,-0.0131853811868,0.0954445974982,0.00126435694499,0.995346610952,-0.0195261505808,0.0299559803999,-0.00350092685355,-1.80194387137,-0.246647036979,9.30614773488
