timestamp,orien_x,orien_y,orien_z,orien_w,ang_v_x,ang_v_y,ang_v_z,lin_acc_x,lin_acc_y,lin_acc_z
5855406,-0.00688074026895,0.0793245354141,0.000547550025843,0.996824946359,0.00547647274502,0.00577861343728,0.00169505401971,-1.51834634419,-0.130880382453,9.47876790919
5855487,-0.00688348798681,0.0795827496749,0.000549563115652,0.996804344657,0.00328588364701,0.00942682892283,0.00101703241183,-1.52368401135,-0.130961245829,9.48063385587
5855570,-0.00642052310415,0.0802064906837,0.000516642863048,0.996757457366,0.00197153018821,0.0150212787059,0.000610219447097,-1.53574515779,-0.122151217712,9.48007748271
5855656,-0.00579848876494,0.080816103933,0.000470157123037,0.99671205161,0.00118291811292,0.0209320889445,0.000366131668258,-1.54537604731,-0.110161436194,9.46633612952
5855736,-0.00598893303035,0.0819663064398,0.000492557047922,0.996616984943,0.000709750867755,0.0249042651491,0.000219679000955,-1.56384384982,-0.113502054587,9.44228958665
5855815,-0.00646251104889,0.0822600423668,0.000533425518407,0.9965898037,0.000425850520653,0.0272875708718,0.000131807400573,-1.56917844734,-0.122449610438,9.43983266922
5855895,-0.00608306281428,0.0829928076586,0.000506607655409,0.996531451371,0.000255510312392,0.028291864244,7.90844403437e-05,-1.58482905449,-0.115368295316,9.44817474558
5855977,-0.00623535427383,0.0842319449547,0.000527099594596,0.996426526128,0.000153306187435,0.0288944402674,4.74506642062e-05,-1.60619042708,-0.118062691056,9.43163217645
5856055,-0.00615558223713,0.0852182309579,0.000526493131958,0.996343156109,-0.00161077653339,0.0296816759428,2.84703985237e-05,-1.62547159511,-0.116566866343,9.43200170211
5856135,-0.00632870823038,0.086113293497,0.000547029008102,0.996265099707,-0.00309491622734,0.031005397471,1.70822391142e-05,-1.64134985892,-0.119739514337,9.42288603103
5856210,-0.00724266497841,0.0873015603923,0.000634736261837,0.996155398754,-0.00398540004372,0.0326510105109,1.02493434685e-05,-1.66356608601,-0.136965993758,9.41717720822
5856286,-0.00859757353428,0.0878121350909,0.000757927462092,0.996099661784,-0.004945380395,0.0336383783348,6.14960608113e-06,-1.67138915844,-0.16238535187,9.40465394822
5856365,-0.00930722468601,0.0888054761882,0.000829847630584,0.996005157778,-0.00509567854431,0.0342307990291,3.68976364868e-06,-1.68996937153,-0.175721605409,9.40001303422
5856445,-0.00973142800826,0.0895547398709,0.000875053493409,0.995933974798,-0.00476016737243,0.0341605613842,2.21385818921e-06,-1.7066241632,-0.183962777699,9.41111485544
5856525,-0.0106624732046,0.0911226595023,0.000975708340831,0.995782115015,-0.00285610042346,0.0341184187973,1.32831491352e-06,-1.72906688684,-0.200639069207,9.36630061248
5856605,-0.011480873527,0.091952261261,0.00106025491502,0.995696664176,-0.00171366025408,0.0328160630608,7.96988948114e-07,-1.73247687405,-0.214475566768,9.29751353766
5856685,-0.0116017865327,0.0929744561748,0.00108343657974,0.995600308966,-0.00102819615245,0.030331889373,4.78193368869e-07,-1.74673329484,-0.216073700657,9.26821230106
5856765,-0.0122758769208,0.0942296431303,0.00116201062003,0.995474121679,-0.00529950836755,0.0237331044228,-0.00170247332983,-1.78665118906,-0.230679530453,9.349990928
5856846,-0.0128168580903,0.0958318254635,0.00123404532905,0.995314255152,-0.009139365881,0.0172196930839,-0.00314993430521,-1.82329119439,-0.241597809824,9.37751028922
5856929,-0.0131127963474,0.0970887956361,0.00127926074647,0.995188516727,-0.0110175903276,0.0103318158504,-0.00188996058312,-1.84599345809,-0.246951676617,9.36768568769
5857013,-0.0132694463114,0.0981959362695,0.00130945112599,0.995077768434,-0.0100160746883,0.000665118711208,-0.00113397634987,-1.86583974063,-0.249685156361,9.35843904445
5857094,-0.0133442000207,0.0993760844804,0.00133281229308,0.994959571928,-0.00856378518173,-0.00598627969521,-0.000680385809925,-1.87966287148,-0.249888723211,9.31242905045
5857176,-0.0141912196813,0.0991589527949,0.00141430126344,0.994969402101,-0.00513827110904,-0.010828498862,-0.000408231485955,-1.87933762401,-0.26629143461,9.33127056626
5857254,-0.0142385502144,0.0989394763267,0.0014158472864,0.994990572362,-0.00308296266542,-0.0175650409152,0.00273489153866,-1.88584624018,-0.268711036303,9.38495284513
5857336,-0.0142844919816,0.0994225142995,0.001427420362,0.994941746742,-0.00184977759925,-0.0228840363315,0.00504645541489,-1.89430039303,-0.269444536821,9.37981266655
5857415,-0.0143325901249,0.0998983325064,0.00143915105784,0.994893375627,-0.00110986655955,-0.029480954073,0.00515632355625,-1.91206215354,-0.271560578294,9.42126071028
5857495,-0.0136221916617,0.099506710225,0.00136238947821,0.994942709109,-0.000665919935731,-0.0355675550252,0.00309379413375,-1.90883284022,-0.258704413383,9.44397475503
5857576,-0.0138844908134,0.0984762632781,0.00137410615974,0.995041586225,-0.000399551961439,-0.0421993460268,0.00185627648025,-1.8697851265,-0.261046361408,9.3503429475
5857656,-0.0139641014617,0.0969896045282,0.00136092348452,0.995186499291,-0.00407094173002,-0.0517123914267,0.00111376588815,-1.83534317062,-0.261733269726,9.3228942829
5857735,-0.0139623444046,0.0968365294999,0.00135858423226,0.995201433752,-0.0071251557141,-0.0608257391584,0.000668259532889,-1.83383161038,-0.26190599455,9.33036710075
5857815,-0.0131218842423,0.0964932883137,0.00127222148979,0.995246322735,-0.00895768410454,-0.0701249583505,0.000400955719734,-1.84010727922,-0.24788383965,9.39710003462
5857896,-0.0123212272506,0.0961696717331,0.00119053821929,0.995287980545,-0.00878013095442,-0.0769815600502,0.00236902373915,-1.83573239487,-0.233006202228,9.40769111452
5857976,-0.0118600329768,0.0952505693487,0.001134915904,0.995382027476,-0.00526807857265,-0.0823725912544,0.00482693473519,-1.8103625485,-0.223361359276,9.36999245192
5858055,-0.0121871013476,0.0946923301134,0.00115932160482,0.995431310112,-0.00316084714359,-0.0881613503457,0.00672737139427,-1.80352034648,-0.230024302138,9.39094772457
5858136,-0.0124536477383,0.0942481141113,0.0011790738468,0.995470144921,0.000231942021155,-0.0924859859234,0.00829332345118,-1.80348516809,-0.236176849349,9.43608203074
5858216,-0.0128153859842,0.0938837341684,0.00120859502956,0.995499949593,0.00609882607316,-0.0959321473929,0.00965858474679,-1.79245073342,-0.242501999502,9.4155180014
5858296,-0.0130640400556,0.0927502472789,0.00121704434603,0.995602953637,0.0108960266888,-0.0975741542132,0.00920067133977,-1.769070661,-0.247015350092,9.40916508795
5858376,-0.0125433889197,0.091620232416,0.00115417459793,0.99571434874,0.0142000371196,-0.0955795278751,0.00552040280386,-1.74259276892,-0.236555251315,9.38596030643
5858455,-0.012104599276,0.0900300675701,0.0010943029599,0.995864884465,0.0140539930707,-0.0931056818879,0.00331224168232,-1.71066488254,-0.228124410555,9.38113540383
5858536,-0.0108232185561,0.0885927716544,0.000962701398144,0.996008660583,0.0109865362112,-0.0937498246028,-0.00141817548231,-1.68432554574,-0.204151712983,9.39092973107
5858616,-0.0115464313474,0.086170759947,0.00099874704843,0.996212970483,0.00403778135796,-0.0996702810308,-0.00723625621131,-1.6393126834,-0.21801967403,9.40255241139
5858696,-0.0124329973511,0.084489675491,0.00105431212893,0.99634622684,-0.000557161615458,-0.105351005195,-0.0107271046487,-1.60991076434,-0.235198996801,9.42125760773
5858775,-0.0116262628602,0.0834327437772,0.000973471593567,0.996445111198,-0.000334296969275,-0.109185129755,-0.00813902303508,-1.5908330919,-0.220128052866,9.4305653642
5858855,-0.0111614798184,0.0827386761789,0.000926721860944,0.996508341169,0.00448201249452,-0.112762674675,-0.00190358339081,-1.58273837077,-0.212043167169,9.46320449684
5858936,-0.0107139640439,0.0829860906475,0.000892239332284,0.996492711284,0.00864886835718,-0.114909201627,0.00396613070306,-1.58985254639,-0.203840353426,9.47704189244
5859016,-0.010117968214,0.0816666731989,0.000829113160352,0.996607994037,0.0115746719362,-0.113217287368,0.00876502934376,-1.55605324536,-0.191496640034,9.42884117062
5859096,-0.0101630770996,0.080814718832,0.000824064596639,0.996676985789,0.0129044640222,-0.11135075869,0.0103672983438,-1.53098526143,-0.19127301698,9.37669698142
5859176,-0.0087629914313,0.0796852694674,0.000700536143244,0.996781308543,0.0102968187821,-0.110656531545,0.00622037900628,-1.51474737023,-0.165520885383,9.41196927406
5859256,-0.00826301200374,0.0782194116325,0.000648336670142,0.996901713278,0.00617809126926,-0.109388615134,0.00373222740377,-1.49087884572,-0.156533950908,9.44079409495
5859335,-0.00899930574755,0.0765145785312,0.000690630910866,0.997027609847,0.00200409451571,-0.107776485165,0.000110886134951,-1.4605165799,-0.170774243836,9.45808898749
5859415,-0.0095099106751,0.0749278003625,0.000714598039561,0.997143357638,0.00120245670942,-0.103829376754,6.65316809708e-05,-1.42841285077,-0.180276100256,9.44931230973
5859495,-0.00915217312004,0.074209362493,0.000681083658065,0.997200453455,0.000721474025655,-0.100609731584,3.99190085825e-05,-1.41872741993,-0.174006205808,9.47780454648
5859575,-0.00967213483147,0.0743328175031,0.000720985654244,0.997186322725,0.00554116515294,-0.0961238041131,0.00385516195831,-1.42297180841,-0.184130638768,9.48987206505
5859655,-0.00954596466194,0.0740569082785,0.000708923891209,0.99720807574,0.011838500321,-0.0887496569546,0.0065699977896,-1.41091381136,-0.180867912069,9.44515840016
5859736,-0.00941077394325,0.0737017923234,0.000695513529447,0.997235678966,0.0156169014218,-0.0826224084136,0.006921829104,-1.40128481148,-0.177952595386,9.42670990704
5859815,-0.00894577808531,0.0728379428477,0.000653353871379,0.997303454453,0.015755491775,-0.0789460592891,0.0041530974624,-1.38353640324,-0.169020800396,9.41971095399
5859896,-0.00947628684816,0.0725894916872,0.000689729635006,0.997316644781,0.0141358857411,-0.0775916299372,-0.00133935207572,-1.37647866079,-0.178745193861,9.40401941419
5859977,-0.00962824771694,0.0714937664922,0.000690158013758,0.997394336198,0.00848153144466,-0.0776303524491,-0.00718896216736,-1.3562028642,-0.181706787947,9.40968796077
5860055,-0.00987639738185,0.0713080504188,0.000706098832257,0.997405193562,0.0050889188668,-0.0780792760176,-0.0102730381609,-1.35936027687,-0.187314467055,9.45642413877
5860135,-0.00999294394275,0.0704871938193,0.000706166559472,0.997462379194,0.00135059107423,-0.0774972500358,-0.0108464135726,-1.34665009434,-0.189960814022,9.47871976158
5860215,-0.00972073689557,0.0691022981613,0.000673366933832,0.997561991176,0.000810354644538,-0.0767223443853,-0.00650784814357,-1.32034921188,-0.184844857554,9.48275974879
5860295,-0.00911830316915,0.0694492081643,0.000634818293922,0.997543613602,0.00218897303257,-0.0758317109335,-0.000499188394445,-1.32707417801,-0.173395577862,9.48302895963
5860375,-0.00965486977623,0.0699407625035,0.000676958511846,0.997504192952,0.00131338381954,-0.0706147401864,0.00523445776234,-1.33254567868,-0.183046001503,9.45398122587
5860456,-0.0103545201776,0.0702193241448,0.000728926075016,0.997477568217,0.000788030291726,-0.0662074875537,0.00782326533349,-1.33104017576,-0.195300600169,9.40494912371
5860537,-0.00984919551952,0.0701513184627,0.000692674398205,0.997487496697,0.000472818175035,-0.0635631359741,0.00895085981471,-1.33061571434,-0.185893947748,9.41144288731
5860617,-0.0105512804612,0.0704589340202,0.000745326147635,0.99745859743,0.000283690905021,-0.0585710045346,0.00835034631906,-1.33826190297,-0.199403569577,9.42324001095
5860695,-0.0109490148303,0.070112864687,0.000769607222909,0.99747867796,0.000170214543013,-0.0534472753636,0.00501020779144,-1.335427591,-0.207509342674,9.45019015891
5860775,-0.0109353527015,0.0693116104894,0.000759819990814,0.997534832167,0.000102128725808,-0.0482445875537,0.00300612467486,-1.32367135685,-0.207823823378,9.476894735
5860855,-0.0110074590956,0.0678402940227,0.000748519368421,0.997635188869,0.00261541760426,-0.0412917643146,0.00180367480492,-1.29985820473,-0.209927873128,9.51111341326
5860935,-0.0111574247811,0.0688861083973,0.000770470103186,0.997561838844,0.00582615117717,-0.0349916200639,0.00363634525172,-1.31908913671,-0.212626823975,9.50315362047
5861016,-0.011265678493,0.0703641488588,0.000794720505096,0.997457437419,0.0132865621199,-0.0312115335134,0.00473594751981,-1.34188044369,-0.21376735415,9.46126761906
5861095,-0.0112139872085,0.0704017688237,0.000791498607806,0.997455367907,0.0203169490544,-0.030646241829,0.00454432875773,-1.33951407676,-0.212296890762,9.43948790054
5861175,-0.0108229326973,0.0690331261914,0.000748971832243,0.997555377238,0.024535181215,-0.0303070668183,0.00272659725464,-1.31510992067,-0.205189688412,9.45419280868
5861255,-0.0101431537609,0.0680533351817,0.000691915363819,0.997629881898,0.0253633602656,-0.0284008015661,0.00163595835278,-1.29950974635,-0.192785081358,9.47881748453
5861336,-0.0106577722681,0.0694735674557,0.000742269402143,0.997526583281,0.0216033670813,-0.0234258318616,-0.00199825541856,-1.33013280948,-0.20305940941,9.50077489501
5861415,-0.0101127572691,0.0703770130128,0.000713511585977,0.997468946424,0.0155161606175,-0.0178867096701,-0.00545585386576,-1.34276056337,-0.191985754289,9.46630472827
5861496,-0.00999687791162,0.0707923725242,0.000709518558621,0.997440724559,0.00930969637052,-0.0132861661708,-0.00667903281115,-1.3532102577,-0.190129964536,9.48321159428
5861576,-0.0100006172782,0.0707748834807,0.000709607750231,0.997441928124,0.00388305757646,-0.0079716997025,-0.00400741968669,-1.35636761214,-0.190692431847,9.50772092386
5861661,-0.0104675455404,0.0705099627908,0.000739948766662,0.997455877778,0.000201384238568,-0.0047830198215,-0.00240445181201,-1.35323420132,-0.199888458376,9.5217082611
5861736,-0.0105217511654,0.0709066392843,0.00074798644813,0.997427181189,-0.00200761976417,-0.0028698118929,0.00536836989618,-1.35398777665,-0.199899410475,9.47287924377
5861816,-0.0103446111387,0.0709887144862,0.000736247806448,0.997423204751,-0.0046100923502,0.00040656317157,0.0138632734743,-1.34414485471,-0.194878158248,9.39306417834
5861896,-0.00948352040754,0.0710856697407,0.000675882864809,0.997424901223,-0.00702295602474,0.00237238821025,0.0189602156211,-1.34087272337,-0.177979037283,9.35762498772
5861976,-0.0095017538107,0.0707039536703,0.000673527804035,0.997451860478,-0.008044984168,0.00142343292615,0.0194642405404,-1.33220567992,-0.178134631842,9.34809306148
5862055,-0.00881572412353,0.0709740718452,0.000627294334354,0.997439005973,-0.00865820105396,0.000854059755691,0.0176382051847,-1.33753994116,-0.165299299613,9.34955651072
5862135,-0.00838559136001,0.0733124187766,0.000616448684196,0.997273578865,-0.00987751130846,-0.00331877469974,0.0135627535411,-1.37473816147,-0.156400999446,9.29848040423
5862210,-0.00801579039571,0.0737677313924,0.000592941377618,0.997243058301,-0.00805495709238,-0.0100793759876,0.010266102432,-1.38891680802,-0.150104338681,9.33559064732
5862286,-0.00725567040448,0.0732077528006,0.000532614616884,0.997290176678,-0.00483297425543,-0.0141357367604,0.00615966145917,-1.38473472714,-0.136510115416,9.38012286862
5862366,-0.00716423784044,0.0742705611808,0.00053357945064,0.997212250592,-0.00119702430741,-0.0101842023021,0.0036957968755,-1.40784343638,-0.135057346105,9.39798365525
5862445,-0.00766233410856,0.075538017808,0.000580473174539,0.997113313296,-0.000718214584446,-0.00611052138124,8.90278179921e-05,-1.4324825694,-0.144480751657,9.39912332059
5862525,-0.00772032924324,0.076950087473,0.00059586469843,0.99700487737,0.00297459174103,-0.00153786252143,-0.00164934355505,-1.46929270448,-0.146543492498,9.46061984197
5862605,-0.0080949064556,0.0781172201358,0.000634310903373,0.996911114422,0.00689303578216,-0.000922717512859,-0.000989606133032,-1.49760370985,-0.154245481485,9.49608123379
5862685,-0.00892299979031,0.0788614897636,0.000705907915256,0.996845397843,0.00711565189953,-0.000553630507715,-0.00229652392567,-1.5129143719,-0.17011942268,9.50059865727
5862765,-0.00901939220958,0.0798068298414,0.000722142137871,0.996769280719,0.00426939113972,-0.000332178304629,-0.00520912490856,-1.5379025001,-0.172700602583,9.54089807742
5862846,-0.00854615143638,0.080655314157,0.00069157113499,0.996705174725,0.00256163468383,-0.00360482747447,-0.00525392525245,-1.56199334332,-0.164433083718,9.58662554445
5862929,-0.00713548470226,0.0815653262286,0.000583968939644,0.996642283568,-0.000165779435549,-0.00216289648468,-0.00315235515147,-1.57884205091,-0.137206496959,9.58030378126
5863012,-0.0066426750681,0.082252780006,0.000548248451091,0.996589210494,-0.0060591285218,0.000405022355038,-0.00401986339819,-1.58440229232,-0.12709546922,9.53221799263
5863095,-0.0070313734382,0.0836222041173,0.000590060354547,0.996472547838,-0.0151291087726,0.00322284384326,-0.00624312859207,-1.6100045126,-0.134436381874,9.5241960739
5863175,-0.00641813452726,0.0849786841027,0.000547396082005,0.996361947866,-0.0175912664928,-0.00274888437013,-0.00374587715524,-1.62488700443,-0.121842097679,9.4556971585
5863256,-0.00570767658166,0.0847390294276,0.000485416924027,0.996386713927,-0.0186428710634,-0.0105888219128,-0.00224752629315,-1.60508607961,-0.107342342348,9.36767145672
5863336,-0.00535230711756,0.0848651683164,0.00045587564216,0.996377964526,-0.0235307344205,-0.019549685053,-0.00134851577589,-1.60206407086,-0.100318430311,9.33592501026
5863415,-0.00600605840749,0.0835058824575,0.000503308293934,0.99648905741,-0.0277405226191,-0.031311553859,-0.000809109465533,-1.57343580702,-0.112384654378,9.32142612554
5863495,-0.00633643728793,0.0828297136216,0.000526665742191,0.99654343143,-0.0289893253538,-0.04049712545,0.00121729456653,-1.55554058822,-0.118187867822,9.29213666043
5863575,-0.00673844681048,0.0837334316109,0.00056623477619,0.996465245326,-0.0284615368103,-0.0455827783431,0.00243313698577,-1.5584504064,-0.124542837881,9.20680707438
5863656,-0.00691358209295,0.0840163915783,0.000582929321497,0.996440218238,-0.0294219338686,-0.0482084800175,0.00145988219146,-1.56498470062,-0.127876979584,9.21354900293
5863735,-0.00723326053436,0.083368420684,0.000605148150025,0.99649235831,-0.0287211019192,-0.0540408016368,-0.000826830930973,-1.56291977301,-0.134665867926,9.27433673941
5863815,-0.00909369281424,0.0830243999924,0.000757645804897,0.996505734921,-0.022340941889,-0.0630741654073,-0.000496098558584,-1.56599037943,-0.170342662846,9.3311600954
5863895,-0.0101515876654,0.083019257572,0.000845740851135,0.996495876992,-0.0168100856251,-0.0727510842843,0.0014051011107,-1.57309998694,-0.191030479299,9.37363381481
5863976,-0.0108144528024,0.0836889427704,0.000908290147593,0.996432829386,-0.0100860513751,-0.089199487147,0.000843060666419,-1.59484342356,-0.204640270001,9.42521484455
5864056,-0.0102968788615,0.0842089559776,0.000870226992001,0.996394534672,-0.00605163082504,-0.102474049356,0.000505836399851,-1.6088471662,-0.195328472304,9.44826259692
5864136,-0.0114340505351,0.0825432601411,0.000947098348444,0.996521437651,0.00232868236544,-0.112141546928,0.00200626208576,-1.56194335343,-0.214880511116,9.36129535844
5864215,-0.0128225478435,0.0823456624722,0.00105956767298,0.996520773218,0.00948532058704,-0.117942045471,0.00120375725146,-1.5582219227,-0.240976944365,9.36106919138
5864296,-0.0133689904391,0.0834080885692,0.00111908247435,0.996425164531,0.0142049935815,-0.120145274412,0.000722254350873,-1.59142324884,-0.25328292199,9.43587200311
5864376,-0.0135901916677,0.0846180358924,0.00115422273853,0.996320110437,0.0157597271937,-0.120190141592,-0.00467492812702,-1.63337069979,-0.260427088399,9.54300293331
5864455,-0.0135569833749,0.0840356403994,0.00114342054842,0.996369867034,0.0162668772996,-0.121919822146,-0.0113187581055,-1.62430208662,-0.26016460509,9.55724267674
5864535,-0.0146923011328,0.0810413538153,0.00119474403752,0.996601729803,0.0157197872402,-0.129768671462,-0.0182848865227,-1.55685109572,-0.280357829216,9.50521322079
5864616,-0.0153685634223,0.0798051914995,0.00123056278608,0.996691238239,0.0136887729588,-0.137032121421,-0.0228902536346,-1.51494398019,-0.289840141866,9.39498689243
5864696,-0.0165248278097,0.0790324551079,0.00131027680164,0.996734209446,0.0120444743284,-0.142241571519,-0.0252277838402,-1.49171507219,-0.309894739416,9.34225862472
5864775,-0.016530673899,0.076914612853,0.00127540436537,0.996899820691,0.0114835852117,-0.156435183175,-0.0206706411031,-1.45215976964,-0.310195909812,9.34964715115
5864855,-0.0159191947919,0.0746153508187,0.00119128938328,0.99708460498,0.0107213616802,-0.171336701091,-0.0124023846619,-1.41238543698,-0.299602704579,9.37921938444
5864936,-0.015094134246,0.0718978006179,0.00108817618577,0.99729719204,0.0102640275613,-0.184534512455,-0.00233315005959,-1.37104316526,-0.286303596624,9.45514182476
5865016,-0.0148319550872,0.0714559942729,0.00106266632911,0.997332905669,0.0133951475816,-0.189473368844,0.00711391119349,-1.36419431468,-0.281676014176,9.4671764657
5865096,-0.0146183254651,0.07199461426,0.00105529281014,0.997297331008,0.0161251997167,-0.191159612492,0.0136335280683,-1.38091455878,-0.278899464707,9.51054969534
5865175,-0.0143320801579,0.0701861350306,0.00100850472755,0.997430439101,0.0156347806905,-0.190468598436,0.0162682280087,-1.34569629386,-0.273402812369,9.51071625519
5865255,-0.0149592359546,0.0688031075478,0.00103180330664,0.997517563271,0.0132120789675,-0.187499849633,0.0161462877272,-1.31259432661,-0.283991190595,9.46556577973
5865335,-0.0156970050325,0.0678377762775,0.00106744133922,0.997572303501,0.0104813877493,-0.183164459982,0.0122419130051,-1.30135227224,-0.299681604006,9.51939951056
5865415,-0.0155764706391,0.0678860224121,0.00105999945973,0.997570918744,0.0126741835715,-0.182691676499,0.00734514780304,-1.30011370343,-0.296885423585,9.50357629569
5865495,-0.0152330005573,0.06655370386,0.0010161843415,0.997666040099,0.0165440014336,-0.182833696471,0.00440708868183,-1.27471028505,-0.290419312012,9.5072504759
5865575,-0.0139204601662,0.0649157161042,0.0009056552036,0.997793240296,0.022697102704,-0.181216148208,0.0026442532091,-1.23552621741,-0.263794729297,9.45151530385
5865656,-0.0132913403264,0.0626484942662,0.000834395641623,0.997946797291,0.0268146535277,-0.178542859005,-0.00011620832039,-1.17849695359,-0.249017080498,9.34600873065
5865735,-0.0129718040861,0.0612900381461,0.000796607394402,0.998035384613,0.028433803899,-0.180344405974,-0.00304955542247,-1.14475823563,-0.241347592049,9.2822259464
5865815,-0.0115209092728,0.0611514430431,0.000705888410258,0.9980617573,0.027702533876,-0.189087755262,-0.00438387362225,-1.13768311399,-0.213522142876,9.24682931784
5865895,-0.0105619180705,0.0598035389028,0.00063280818683,0.998154087391,0.0251353215548,-0.196887905204,-0.00518446454212,-1.11308732689,-0.195869192708,9.25360350013
5865977,-0.00968484040272,0.0573597996886,0.000556462908993,0.998306439724,0.019763783609,-0.207527656029,-0.00523912903258,-1.07965508168,-0.181686120117,9.36253404221
5866056,-0.00867711977907,0.0561544421169,0.000488047373782,0.998384268723,0.01611517078,-0.216891336955,-0.00314347741955,-1.06677833954,-0.16431773042,9.45183438407
5866135,-0.00836448586922,0.0559698622301,0.000468910639789,0.998397310704,0.0130746229597,-0.226340756063,0.00279650422435,-1.06838968072,-0.159163940254,9.49775314387
5866216,-0.00790242155766,0.0549908192631,0.00043523285568,0.998455493301,0.00997322408313,-0.234564547897,0.00976601370239,-1.05427301498,-0.151043842668,9.54086671054
5866296,-0.0075359684245,0.0535620948502,0.00040423405329,0.99853600224,0.00853807481865,-0.239498822998,0.0147990995121,-1.03167722573,-0.14473526312,9.58780382515
5866376,-0.00648866187167,0.0512004599483,0.000332665828784,0.998667261655,0.00937974550581,-0.241182317873,0.0173932609365,-0.990107592765,-0.125148384435,9.62985246355
5866455,-0.00645248569867,0.0493006046746,0.00031850540842,0.99876309221,0.00903336779518,-0.23963827443,0.0176726876068,-0.951040023188,-0.124170164694,9.60911297471
5866536,-0.00604465684227,0.0492898182713,0.000298308095069,0.998766182322,0.00542002067711,-0.229346667012,0.0135834429943,-0.943640632565,-0.115442947205,9.53657481974
5866615,-0.00619008081298,0.0486274135945,0.000301369938669,0.998797760672,0.00325201240627,-0.216786351639,0.00602161548927,-0.924356947899,-0.117389221692,9.46982817065
5866696,-0.00577773934604,0.0485323745583,0.000280742937273,0.998804859585,-0.000177242863551,-0.209675852477,-0.000218241259598,-0.917575140419,-0.108980179744,9.41900627373
5866775,-0.0051757762654,0.0457231649014,0.000236903820894,0.998940712659,-0.00478893639421,-0.204983862918,-0.00566491555477,-0.869213325218,-0.0981886705904,9.47470439534
5866855,-0.00535511923584,0.0437574950421,0.000234554636945,0.99902780207,-0.00840733263553,-0.200465908937,-0.0085072300704,-0.837083773939,-0.102248252403,9.53685368823
5866935,-0.00507815195629,0.0415792590867,0.0002113312853,0.999122281268,-0.00844992007302,-0.198606516671,-0.00510433804224,-0.795779387899,-0.0970225561782,9.54397632305
5867016,-0.00351526758352,0.0399858577718,0.000140674365797,0.999194052366,-0.00251581167504,-0.200470711742,0.0020456779122,-0.761419949634,-0.0668326596835,9.49797166907
5867096,-0.00364163500286,0.0389241347846,0.000141855937312,0.999235522839,0.00232172354814,-0.201163538723,0.00888982785364,-0.739367765679,-0.069069435898,9.47563612034
5867176,-0.00523801797977,0.0372829532803,0.000195427337243,0.999291001846,0.00352148443619,-0.199450784604,0.01342200788,-0.711771245345,-0.0998601820466,9.5249628746
5867257,-0.00587255127498,0.0374702048418,0.000220204143732,0.999280465335,0.00211289066171,-0.198423132133,0.0157156258343,-0.719394769912,-0.112588545751,9.57850094375
5867336,-0.00672240583539,0.0368097201428,0.000247623300223,0.999299650978,0.00424756482726,-0.199083610835,0.0175174866684,-0.703857590707,-0.128365849619,9.54023425644
5867416,-0.00566764280988,0.0363596903648,0.000206213411222,0.999322674724,0.0076568196339,-0.195222997441,0.0168958429229,-0.688549779034,-0.107186450689,9.44903949673
5867495,-0.00564421423666,0.0356963892259,0.000201609775575,0.999346721611,0.0105537526408,-0.189926798975,0.0143944063684,-0.674097848377,-0.106449819632,9.423292481
5867575,-0.00707430025826,0.0346260787086,0.000245108404298,0.999375269291,0.0139946726908,-0.185046319649,0.00863664382103,-0.655610463177,-0.133780580256,9.44878511995
5867662,-0.00735895661412,0.0338763587235,0.000249444593422,0.999398907271,0.0164849147823,-0.182118032054,0.00347922604677,-0.646912233717,-0.140362809823,9.5304000893
5867736,-0.00868237203977,0.0325426125952,0.000282707478923,0.999432596455,0.0179790600371,-0.177381229066,0.00208753562806,-0.626849245748,-0.167057063335,9.61408499499
5867815,-0.00810585861595,0.0334423113535,0.000271239291463,0.999407741263,0.0175984770057,-0.172836387028,-0.000450238869011,-0.64641491488,-0.156497977015,9.64681826628
5867896,-0.00780040043058,0.0336483655311,0.000262627445781,0.999403258088,0.0177958172483,-0.170535171866,-0.00197290356725,-0.652647652541,-0.151120205887,9.68010517852
5867976,-0.0077329035309,0.0325164439143,0.000251587097294,0.999441253792,0.0200426717011,-0.168728752708,-0.00118374214035,-0.62861455588,-0.149330064206,9.64932025067
5868056,-0.00869036464544,0.0308082966584,0.000267872617854,0.999487496002,0.0218164744343,-0.165090760844,-0.000710245284212,-0.594083403938,-0.167409592479,9.62606089063
5868136,-0.00919747355936,0.0285920378998,0.000263093216428,0.999548814531,0.0228807560742,-0.156948304865,-0.000426147170527,-0.549422696172,-0.17658136828,9.59414876216
5868216,-0.00799125730442,0.027708892402,0.000221521026597,0.999584067509,0.0226679449352,-0.145251790295,-0.000255688302316,-0.528851195828,-0.152396333175,9.5304693342
5868290,-0.0071078959268,0.0283656961679,0.000201706682015,0.999572320751,0.0216888781289,-0.136105431245,0.00154934726446,-0.537337850065,-0.134533429788,9.45898227435
5868367,-0.00728812369499,0.0290505227143,0.000211818835018,0.999551352115,0.017270227492,-0.131043305877,0.00263236860452,-0.54649998543,-0.136983796886,9.39286628233
5868446,-0.00688467998108,0.0294161198706,0.000202613060034,0.999543521824,0.012916276864,-0.130560171024,0.00157942116271,-0.553194367479,-0.129356050837,9.38958855236
5868525,-0.00724246031111,0.0282328990084,0.000204562566326,0.999575113904,0.00774976611837,-0.134952880789,0.000947652697628,-0.534466080936,-0.136989831674,9.45274419953
5868605,-0.00689416214836,0.0268294766734,0.00018503777373,0.999616234097,0.00464985967102,-0.137588506648,0.000568591618577,-0.51125810071,-0.131275033038,9.51649496576
5868685,-0.00691574456459,0.0254113133781,0.000175799129496,0.999653143207,-0.00018991462762,-0.135764361671,0.00204391521699,-0.484165203444,-0.131676876512,9.51619877877
5868765,-0.0072382566546,0.0275856435081,0.000199753223856,0.99959321727,-0.00181670902242,-0.128710213825,0.0067603199292,-0.528722187252,-0.138621747245,9.57108770476
5868844,-0.00657976398912,0.0290759269566,0.000191397807436,0.999555531496,-0.00109002541345,-0.122774964872,0.0112929230024,-0.559526520359,-0.126508098396,9.60857004351
5868924,-0.00650622722826,0.0297532859569,0.000193671487469,0.999536079125,-0.000654015248071,-0.118788125438,0.0152895550307,-0.575375498397,-0.125704253569,9.65524088353
5869005,-0.00487003792111,0.0287712047989,0.000140176552626,0.999574149754,-0.00294654951761,-0.115118951593,0.0176875342476,-0.554957364468,-0.0938579049245,9.63176805185
5869086,-0.00458409097322,0.0268435372174,0.000123098870454,0.99962912896,-0.00645052038665,-0.111640377102,0.0187006317164,-0.516609686015,-0.0881576250348,9.61169884869
5869167,-0.00401910178397,0.0256171500479,0.000102992565492,0.999663742384,-0.0102556631539,-0.108276162223,0.0193084901976,-0.493122238611,-0.0773154319545,9.61498021741
5869247,-0.00325227089979,0.0257121853042,8.3651091004e-05,0.999664093215,-0.0184984096748,-0.102852112804,0.0200988953478,-0.49578918179,-0.0626698304617,9.63131424861
5869327,-0.00271725661066,0.0257407147757,6.99675694978e-05,0.999664957485,-0.0281266482633,-0.0961921626608,0.0209988284994,-0.497149927531,-0.05244594857,9.64710017148
5869411,-0.00300819239751,0.026307953608,7.91671454772e-05,0.999649356569,-0.0343292814779,-0.0921961925749,0.0219644784518,-0.505867240454,-0.0578037874037,9.60413870885
5869495,-0.00352081893612,0.0252755644506,8.90196780599e-05,0.999674317841,-0.0367737912223,-0.0919270608307,0.0246723187306,-0.484761409946,-0.0674828351864,9.58003777243
5869575,-0.00446687464919,0.024499137848,0.000109468527741,0.999689865554,-0.0339835964543,-0.0904885115998,0.0279997831437,-0.469224869649,-0.0855006923228,9.56725315174
5869656,-0.00498567580165,0.0245938539047,0.000122655608301,0.999685085586,-0.0293296491633,-0.0883483118768,0.030421951853,-0.469479752112,-0.0951143057745,9.53540094256
5869736,-0.00515602449958,0.0238136720513,0.000122820340578,0.999703110603,-0.0205776199282,-0.0862128119201,0.0293211127098,-0.450718488474,-0.0975305915214,9.45475863438
5869815,-0.00536022385761,0.0240322722099,0.000128857427821,0.99969680468,-0.0123465719569,-0.0853572020076,0.0273835390395,-0.452629839422,-0.100895724298,9.4082886108
5869895,-0.00622274558038,0.0264872551098,0.000164884494981,0.999629769248,-0.00740794317416,-0.0852695261215,0.0257953047759,-0.498548221036,-0.117040593758,9.40027847044
5869976,-0.00666816181724,0.0281521035686,0.000187801397241,0.99958139209,-0.00699890627327,-0.0873453708972,0.0231396039718,-0.530408812993,-0.125530414605,9.40816165502
5870056,-0.00786403550595,0.0276999512868,0.00021792376795,0.999585325099,-0.00760486425566,-0.0911450181314,0.020269113305,-0.524625470901,-0.14882023973,9.45742371664
5870136,-0.00957523180377,0.0270147808973,0.000258779111105,0.999589140388,-0.00839412910655,-0.0976817070865,0.0189725089664,-0.517803583322,-0.183384269082,9.57101743189
5870216,-0.0101998005478,0.0268287427353,0.000273760622723,0.999587968959,-0.00844199795563,-0.10160372046,0.0194716165476,-0.519695954925,-0.197418922045,9.67245306411
5870296,-0.0118286524048,0.0267426603173,0.000316464980593,0.999572315018,-0.00506519877338,-0.100977098053,0.0210481512807,-0.51939485689,-0.229542310258,9.69716199838
5870376,-0.0121099854098,0.0285925527773,0.000346422465849,0.999517730793,0.00377192171937,-0.098472674302,0.0215683820591,-0.548423458324,-0.232056931565,9.57503902398
5870455,-0.011582804423,0.0301744963656,0.000349688011902,0.999477471547,0.00949988407647,-0.0969700200513,0.0210291404033,-0.573502064496,-0.219918754886,9.48692118905
5870535,-0.0106747867404,0.0298253176151,0.00031853878823,0.99949807298,0.00953114099904,-0.0990482579312,0.017300074918,-0.5638889511,-0.201622521242,9.43788121074
5870615,-0.0112186209401,0.0281222995515,0.000315638143622,0.999541484474,0.00571868459943,-0.101997960905,0.014211255504,-0.529390663141,-0.210995495167,9.39816215662
5870696,-0.0113285389671,0.0263045637732,0.000298114580662,0.999589738471,0.00172845051381,-0.106321923058,0.0110808936712,-0.495044740902,-0.213027977032,9.39707563992
5870775,-0.0110431442571,0.0259965741134,0.000287198512425,0.999600992705,-0.00279414024487,-0.112321820841,0.0066485362027,-0.497421523496,-0.211135003993,9.55444103947
5870856,-0.010474849845,0.0270471217772,0.000283433797904,0.999579236674,-0.00593338476154,-0.119327280003,0.00569188196747,-0.523507870152,-0.202577195023,9.66442258999
5870935,-0.0103090477483,0.028657616787,0.000295569860291,0.999536080976,-0.00653986128716,-0.128638836238,0.00980048010241,-0.557355610763,-0.200315551633,9.70982138603
5871016,-0.00950497111302,0.0283636885209,0.000269716753989,0.999552441821,-0.00562667701814,-0.134225769979,0.0152454694136,-0.551328036868,-0.184593355638,9.7049783614
5871096,-0.00922200715249,0.0268481553972,0.000247693713147,0.999596953669,-0.00337600621089,-0.134598099793,0.0202152232462,-0.518023391945,-0.177793659867,9.63479547998
5871175,-0.00909549617487,0.0244810080073,0.000222742893823,0.999658893114,-0.00500543415677,-0.132267357313,0.0214943152999,-0.467873664073,-0.173713842405,9.54528055825
5871255,-0.00927909186367,0.0235773158494,0.000218846344918,0.999678928826,-0.00768585117014,-0.12959184164,0.0243902208394,-0.446402953327,-0.175575514915,9.45685568114
5871336,-0.00807992557823,0.0248672271844,0.000200994067018,0.999658089257,-0.0135510019928,-0.131392052728,0.0299589747163,-0.468954711449,-0.152271661488,9.41888422533
5871415,-0.00733098141112,0.0254650267414,0.000186749221114,0.999648815459,-0.0204756129781,-0.137154770057,0.0337259171039,-0.481528085659,-0.138528769598,9.44422480522
5871495,-0.00701283454428,0.0238639879481,0.000167405993919,0.99969060324,-0.0301643503682,-0.151680342053,0.0364117725979,-0.45746864827,-0.134353177286,9.57554793367
5871575,-0.00659555261833,0.020805079602,0.000137253693011,0.999761785882,-0.0351262126794,-0.164652585865,0.041428806386,-0.404007498777,-0.128017099243,9.70198642378
5871656,-0.00716673262424,0.0188182138342,0.000134892459601,0.999797226729,-0.0355491896974,-0.171158861967,0.0461417869047,-0.369057767088,-0.140496023706,9.79939733278
5871735,-0.00692691535583,0.0190888336624,0.0001322540075,0.999793787129,-0.031120385232,-0.172082797199,0.0502466454003,-0.372987625341,-0.135294109585,9.76327291261
5871815,-0.00692323324004,0.0200520887426,0.0001388565361,0.999774956326,-0.0271860323685,-0.170934398092,0.0527095604977,-0.389231909921,-0.134327742606,9.69850263062
5871894,-0.00563003746609,0.020052341349,0.000112919928432,0.999783073238,-0.0239740405274,-0.167691218259,0.0533359294332,-0.381021968218,-0.106932863826,9.49420112671
5871976,-0.00553521434449,0.017112949331,9.47391679421e-05,0.999838236612,-0.0233239156071,-0.172130661281,0.0528603706715,-0.319114003685,-0.103185205356,9.31894778784
5872055,-0.00653285150593,0.0165692056184,0.000108261333026,0.999841373197,-0.0237852207779,-0.178625537647,0.0525750354146,-0.307108342397,-0.121047904219,9.26263749839
5872135,-0.0069196564045,0.0153636098892,0.000106325997392,0.999858023192,-0.0244876939418,-0.185502293897,0.0515524541375,-0.286257996161,-0.128892481545,9.31169070216
5872215,-0.00766217115247,0.0153879087812,0.000117922215675,0.999852233828,-0.0240577977173,-0.190905417832,0.0505132153097,-0.290028359708,-0.144373135412,9.41917359854
5872296,-0.00885972560126,0.0145101314359,0.000128574366847,0.999855461963,-0.0203943394908,-0.198829882869,0.0494639819516,-0.278404208208,-0.16994209902,9.58852936909
5872376,-0.00931826170439,0.0133385505501,0.000124308561988,0.999867610044,-0.0122366036945,-0.207415772444,0.0496858220597,-0.257064507346,-0.179537393201,9.63148489074
5872455,-0.00995870320625,0.0137784404453,0.000137235233711,0.999855469543,-0.00265937154062,-0.211715926066,0.050244616186,-0.266047921937,-0.192237754524,9.64935733825
5872535,-0.0100239894892,0.0112029824934,0.000112311270641,0.999886993717,0.00691817830487,-0.20876204744,0.0484514423545,-0.21565307201,-0.192914786504,9.62057647937
5872615,-0.0109242647957,0.0108593983957,0.000118645020487,0.999881352876,0.0122390181507,-0.204861269958,0.0460984678712,-0.209358178655,-0.210559257644,9.63491142595
5872695,-0.0120373535422,0.0112854938917,0.000135865977839,0.999863851376,0.0128773816894,-0.201243733284,0.0451123732426,-0.216594570279,-0.230962167135,9.59083995738
5872775,-0.0119600017045,0.0111936552044,0.000133894102272,0.999865812254,0.0107062594439,-0.204607182078,0.0445207164655,-0.214232640605,-0.228838702869,9.56415765607
5872855,-0.0117561609318,0.0108198751911,0.00012721643379,0.999872345251,0.00897789603511,-0.211733532092,0.0437400323378,-0.207069398816,-0.224931002483,9.56395000624
5872936,-0.0125957311647,0.00805706385822,0.000101495957153,0.999888204239,0.00879225811276,-0.218989172531,0.0454000721685,-0.155126840706,-0.242458256031,9.62200451668
5873016,-0.0128129297217,0.00540264167302,6.92303617386e-05,0.999903313077,0.00953225548228,-0.22206548661,0.0468217861283,-0.104568272392,-0.247946784673,9.67311779424
5873095,-0.0123563389242,0.00265759900702,3.28408172057e-05,0.999920125299,0.0138074644571,-0.220505754566,0.0472491244428,-0.0517276357986,-0.240465994388,9.7282066177
5873175,-0.0120806118595,0.00196366357929,2.37240344937e-05,0.999925098335,0.0197781103338,-0.217867155093,0.0475055274315,-0.0377403461276,-0.23214679756,9.60611564421
5873255,-0.0114330675518,0.00106863778938,1.22186136168e-05,0.999934069242,0.0220834276753,-0.215006925225,0.0459566089788,-0.0202500060164,-0.216620792159,9.47156949761
5873336,-0.0105262479953,-0.00112010995424,-1.17912158211e-05,0.999943970089,0.0166555770969,-0.212865097243,0.0399189771697,0.0208899793003,-0.196291861282,9.32236764217
5873415,-0.0101245109966,-0.0030173089562,-3.05504826368e-05,0.999944193038,0.00999334625814,-0.212005690515,0.0358707080228,0.055869037629,-0.18744638508,9.25559144468
5873495,-0.00996837474297,-0.00340468613243,-3.39410703791e-05,0.999944517694,0.00301617732465,-0.21191573654,0.0338674365961,0.0636883634954,-0.186448662347,9.35055869981
5873575,-0.00914342052199,-0.00449578161023,-4.1108955774e-05,0.999948090712,-0.00670409483445,-0.213990214462,0.0322397836786,0.0858576311343,-0.174597280904,9.54640274918
5873662,-0.00878773726876,-0.00475432199917,-4.1781818204e-05,0.999950083929,-0.0142390183758,-0.218214731646,0.0316888819895,0.0926948472353,-0.171317174695,9.74626971592
5873735,-0.00715666669058,-0.00613393176962,-4.39004553875e-05,0.999955576551,-0.0187599725005,-0.222452202202,0.0317840310376,0.120739193497,-0.140858111213,9.84009309786
5873815,-0.00647242337853,-0.00730454237202,-4.72803426179e-05,0.999952373446,-0.020195474791,-0.220737783921,0.0322668105279,0.144030145737,-0.127610496611,9.8571222198
5873888,-0.005721804352,-0.00905665038615,-5.18233554239e-05,0.99994261603,-0.0206310861039,-0.208215501293,0.0329821682835,0.176918910196,-0.111761062371,9.76534670224
5873966,-0.00508923690844,-0.00991987354456,-5.04877246506e-05,0.999937844682,-0.0225952131374,-0.198573681409,0.0338370729984,0.191863765551,-0.0984206791705,9.66862228282
5874045,-0.00463321939625,-0.00910872581971,-4.22049290868e-05,0.999947779942,-0.0267535197878,-0.195342729847,0.0347757058887,0.173536779839,-0.0882616677562,9.52415695123
5874125,-0.0050934829306,-0.0110106307561,-5.60865873949e-05,0.99992640694,-0.0288228137165,-0.195958299279,0.0344875055,0.206115058626,-0.0953343700385,9.35751141683
5874205,-0.00565295537883,-0.0124794134064,-7.05521886556e-05,0.999906147275,-0.0292130099508,-0.196327640938,0.0343145852668,0.233084051045,-0.105563495558,9.33581449048
5874285,-0.006012015126,-0.0134848899848,-8.10802005073e-05,0.99989099748,-0.0264672972612,-0.19569786581,0.0371906635571,0.255969211144,-0.11409517253,9.48751740889
5874365,-0.0068622318591,-0.0133568143201,-9.16678930439e-05,0.999887242084,-0.0226914193401,-0.195745690795,0.0406190707771,0.257729298903,-0.132382287844,9.64414028542
5874445,-0.00796979365336,-0.0136364399985,-0.000108693172291,0.999875251258,-0.0136148516041,-0.19705145597,0.044378875355,0.265010275875,-0.154846725002,9.71273547374
5874526,-0.00936169359612,-0.0148856705216,-0.000139376638752,0.999845366084,-0.00433770040928,-0.196983534953,0.048763208409,0.288293055174,-0.181254076261,9.67823581428
5874608,-0.010279741401,-0.0162044250657,-0.000166607981599,0.999815840926,0.00250566049197,-0.195240022096,0.0526708784258,0.312318369725,-0.19805616768,9.63048153983
5874696,-0.0114154460582,-0.0161557033015,-0.000184460657736,0.99980430426,0.0057602969098,-0.18780856346,0.0571439307432,0.309255886337,-0.218432489671,9.56424000911
5874776,-0.0123548295232,-0.0159653984864,-0.000197289985869,0.999796191889,0.00856445888343,-0.181221237972,0.0602534521951,0.30406651398,-0.235207266019,9.51539712436
5874856,-0.0122364678199,-0.0169279177995,-0.000207183126292,0.999781811962,0.011524026252,-0.180248673109,0.0608420948819,0.323218966005,-0.233540543694,9.53924267037
5874941,-0.0125944314477,-0.0174763246727,-0.000220155464962,0.999767928023,0.0137254567346,-0.186050485113,0.0599182103095,0.338780580043,-0.244032678267,9.68427340862
5875020,-0.0126496447444,-0.0183616332563,-0.000232325903003,0.999751360558,0.0137692448398,-0.189531572315,0.0593638795661,0.359370296268,-0.247454917019,9.77703793555
5875098,-0.0126874862669,-0.0206983967497,-0.000262688058621,0.999705224083,0.0125184475185,-0.183532113469,0.0590312811201,0.405721789577,-0.248550579606,9.79055870249
5875179,-0.0116959591333,-0.0220116688416,-0.000257527602312,0.999689264049,0.0130450393101,-0.17099294687,0.0567032717452,0.42826544191,-0.227420742051,9.71774714654
5875251,-0.0117399121034,-0.0225242360525,-0.000264517903555,0.999677329584,0.0125096142621,-0.161340996604,0.0527523257514,0.4334119275,-0.225756167154,9.61037444882
5875327,-0.0109453265823,-0.0208506600697,-0.000228280595172,0.999722660386,0.00495162818851,-0.152995686075,0.0482533078479,0.395080130133,-0.207279750097,9.46502681406
5875405,-0.00976885541489,-0.0204126640758,-0.000199459446827,0.999743893617,-0.00511713425467,-0.149265569943,0.0464052772287,0.382136698685,-0.182786370566,9.35220027545
5875485,-0.0106269165664,-0.0225217680981,-0.000239411205676,0.999689842545,-0.0171180525811,-0.150858710816,0.0499790495332,0.418902790695,-0.197539023267,9.29025043627
5875569,-0.0102184551967,-0.0233212264268,-0.00023838419849,0.99967577081,-0.0243186035769,-0.153091665525,0.0551031433462,0.436892303079,-0.191307144429,9.35674946464
5875646,-0.0106350195856,-0.0240296727898,-0.000255644329243,0.999654643279,-0.0248077236212,-0.155708508534,0.0598803598798,0.462530060803,-0.204566848913,9.61308471174
5875726,-0.0101093993031,-0.0241172015721,-0.000243893834387,0.99965799209,-0.0204186049717,-0.153447403787,0.0644494500459,0.476476194441,-0.199593982639,9.86720290957
5875807,-0.0092343376682,-0.0249304223098,-0.000230297345276,0.99964651153,-0.0152309934133,-0.149110910508,0.0680422842684,0.497533143422,-0.184160414242,9.96700139174
5875885,-0.00799693255103,-0.0262303432371,-0.000209841203504,0.999623916346,-0.00913859604797,-0.141400733803,0.0689209146175,0.518307598456,-0.157901441416,9.86814491097
5875967,-0.00718991211724,-0.026678181189,-0.000191887040936,0.99961819861,-0.00548315762878,-0.135071867534,0.0685967127041,0.520716624503,-0.140230696393,9.74753946001
5876046,-0.0064857752739,-0.0269476859219,-0.000174843811891,0.999615789377,-0.012229385868,-0.131274547773,0.0692535716789,0.518091897309,-0.124600425892,9.6014347783
5876127,-0.00612423213092,-0.0276095022012,-0.000169154660624,0.999600010282,-0.0260679942251,-0.128144775793,0.0696476870639,0.524178506305,-0.116179944256,9.48097140653
5876205,-0.00772601749756,-0.029758546853,-0.000230023801913,0.99952723056,-0.0364996095467,-0.126692602667,0.0694584662333,0.561349294945,-0.145604159181,9.41779134978
5876286,-0.0081563973825,-0.0307510053715,-0.000250944456638,0.999493764802,-0.0397787483094,-0.128801129222,0.069344933735,0.582694087465,-0.154400141993,9.45937081084
5876365,-0.00921690161202,-0.0305189877142,-0.000281433573467,0.999491651245,-0.0366379508295,-0.130917625277,0.0684254341131,0.584008795008,-0.176197723135,9.5525532348
5876445,-0.0089733687453,-0.029334532538,-0.000263353528331,0.999529336487,-0.0249626009279,-0.131761832849,0.0644682138483,0.566841107083,-0.173235120697,9.64724875606
5876525,-0.00838718096199,-0.0285764632162,-0.000239782337292,0.999556393332,-0.0149775605568,-0.130565597146,0.0595397413206,0.553667452336,-0.162359592926,9.67389912791
5876605,-0.00825165544554,-0.0285741862468,-0.000235888699691,0.999557587345,-0.0051553257809,-0.12261112468,0.0527514472508,0.548396881314,-0.158228477924,9.58262911664
5876685,-0.00781010274111,-0.0259037512908,-0.000202385049802,0.999633911492,-0.00309319546854,-0.116561371016,0.0456986403788,0.489928480351,-0.147609523278,9.44574599293
5876764,-0.00656141436707,-0.0241088433769,-0.000158237513929,0.999687794501,-0.00781557814159,-0.114634279063,0.0406155761326,0.451495557449,-0.122802797707,9.3545181524
5876845,-0.00792663883443,-0.0234350323003,-0.000185817912316,0.999693919722,-0.0217169493434,-0.118586304629,0.0367143574619,0.437533770016,-0.147901930089,9.32587824618
5876925,-0.0100049636184,-0.0252472887704,-0.000252691413973,0.9996311376,-0.0326119124333,-0.123511660337,0.034799316321,0.474407108933,-0.187861106784,9.38387223457
5877005,-0.0129774486882,-0.0275498653912,-0.000357692889695,0.999536123809,-0.0340406095497,-0.132000844561,0.0349273618209,0.53100761619,-0.249904419197,9.62217576872
5877085,-0.0143733044932,-0.0283677261632,-0.000407944333151,0.999494128953,-0.0225528160371,-0.140074185526,0.0375583294895,0.558742996228,-0.282820843657,9.83123785503
5877165,-0.0147954498566,-0.0283447018322,-0.000419587184207,0.999488617488,-0.00970047906912,-0.142789739797,0.0399882902137,0.565089157112,-0.294669832854,9.95068960267
5877245,-0.013583159187,-0.028160261621,-0.000382692431527,0.999511055966,0.00695041440239,-0.133776820824,0.0422976467711,0.556686425175,-0.268260403131,9.86793464417
5877326,-0.0125699753369,-0.0276298647192,-0.00034746685632,0.999539126579,0.0169409504853,-0.125814929071,0.044108950767,0.538476676882,-0.244753299984,9.72945678748
5877405,-0.012373254518,-0.0280229631324,-0.000346898076051,0.999530637735,0.0144214709058,-0.124017624449,0.0460471132874,0.534254592555,-0.235676861582,9.51756202415
5877485,-0.0116790392318,-0.0291606111889,-0.00034073609255,0.999506449552,0.00141615149862,-0.127621832352,0.0489127710456,0.54608655192,-0.218499410406,9.34828721693
5877565,-0.0121201675006,-0.0297103744376,-0.000360280258992,0.999485000082,-0.0102182506988,-0.132338497463,0.0514835458234,0.551988626709,-0.224952351322,9.27377681136
5877645,-0.0137097522179,-0.0338201044853,-0.000463974355875,0.999333792061,-0.0197530323861,-0.140276777267,0.053877390813,0.633820265869,-0.256596855129,9.34997775185
5877725,-0.0153125945869,-0.0343333060546,-0.000526103959336,0.999292985944,-0.0237711411526,-0.147168195456,0.0557393878682,0.651555207617,-0.29018818754,9.46632726513
5877805,-0.0148188445073,-0.0331674088575,-0.000491827367413,0.999339823555,-0.0172425151218,-0.155134256923,0.0572822761628,0.644000240049,-0.28735865105,9.68697167768
5877885,-0.0138796252848,-0.0323412257601,-0.000449162392344,0.999380407738,-0.00310877802822,-0.160765273927,0.0565052488937,0.636833637682,-0.272971660356,9.82534382936
5877968,-0.0128305945926,-0.0326411863046,-0.000419063683708,0.999384687287,0.00835129465816,-0.160738363637,0.0547619623479,0.64402584423,-0.252847297972,9.84539961671
5878045,-0.0107882092527,-0.0337907741398,-0.000364771516845,0.999370634482,0.0135245780241,-0.151357036111,0.0528646102974,0.65672087397,-0.209408638793,9.69797925855
5878125,-0.00880720637844,-0.0326826355696,-0.00028800776404,0.999426933547,0.0115202673062,-0.145302549534,0.0517261990672,0.628664287077,-0.16921965349,9.60042907735
5878205,-0.00855464946415,-0.0310808672215,-0.000266024195952,0.999480228367,-0.00543285139869,-0.150609348878,0.051043152329,0.589564259502,-0.162105094096,9.46887581799
5878285,-0.0100938521988,-0.0331043061121,-0.000334350290936,0.999400874161,-0.0262469741582,-0.158901709222,0.0506333242861,0.625959284461,-0.190636921204,9.43639137458
5878365,-0.011774538851,-0.0349172886111,-0.000411414421987,0.999320756279,-0.0404382080597,-0.165154195613,0.0495360473375,0.664555711057,-0.223797168591,9.49543052299
5878445,-0.0118908591516,-0.0378668830068,-0.000450624891221,0.99921194127,-0.0442703577245,-0.169757067571,0.0471749209224,0.732963978392,-0.229806947395,9.65391597737
5878524,-0.0124841667685,-0.0390185205405,-0.000487523052082,0.999160378996,-0.040609986663,-0.171241720561,0.044481174889,0.769699375805,-0.24586266331,9.83687445092
5878605,-0.0114581978094,-0.0395979123056,-0.00045410675133,0.999149893075,-0.0281972025509,-0.170004062047,0.0390337167158,0.790782933588,-0.228441614099,9.95838112319
5878685,-0.0107575328664,-0.0411200566254,-0.000442750517749,0.999096201775,-0.0147898712233,-0.166707326571,0.0315083411973,0.811812774069,-0.212003480422,9.84334029623
5878765,-0.00971670190473,-0.0430280309644,-0.000418497947412,0.999026525731,-0.00589409230372,-0.1634522151,0.0240132854559,0.837359367322,-0.18873307092,9.70105322925
5878845,-0.00923091358586,-0.0444744200191,-0.000410963728467,0.998967790926,-0.00353645538223,-0.161073458157,0.0144079712735,0.848377760286,-0.175728505882,9.50746307403
5878925,-0.00881468737736,-0.0446337141424,-0.000393840076688,0.99896445269,-0.00425032353665,-0.159220513929,0.00864478276412,0.841102426435,-0.165770985365,9.39226666155
5879005,-0.00922419584249,-0.0451889790662,-0.000417276065591,0.998935781851,-0.0131924456585,-0.156831677208,0.00518686965847,0.845595772267,-0.172246321688,9.32554301573
5879085,-0.0102813983647,-0.0465354854012,-0.000478994187559,0.998863610315,-0.0236659996692,-0.160080965851,0.00864609259409,0.871754956036,-0.192172674604,9.33363228161
5879165,-0.0120456963643,-0.0470325620511,-0.00056720894878,0.998820563254,-0.0295244420142,-0.165861749591,0.0132757667242,0.886013945301,-0.226394561794,9.38445451301
5879245,-0.0123237515394,-0.0484746963571,-0.000598138862827,0.998748202096,-0.028356916745,-0.17103298008,0.0198847817555,0.930242943597,-0.235914366471,9.55764227079
5879325,-0.013824013581,-0.0490880217598,-0.00067947778335,0.998698553658,-0.0246765711533,-0.172007268066,0.0259786410815,0.95821686357,-0.269159568369,9.72021286614
5879405,-0.0145625721565,-0.0488242346826,-0.000711931263729,0.998700965632,-0.014805942692,-0.167909250182,0.0326147871074,0.966142669412,-0.287430748346,9.85342882808
5879485,-0.0151021779832,-0.0474733136834,-0.000717841938176,0.998758075517,-0.00164683457035,-0.160342158714,0.0361707846615,0.939534111168,-0.298154036166,9.85626511179
5879565,-0.014334149385,-0.0483531574591,-0.000693984685025,0.998727201347,0.00624863030264,-0.153673453526,0.036601622948,0.945835051662,-0.279688311592,9.741129841
5879645,-0.0136560717513,-0.0502869623237,-0.000687656748845,0.998641206967,0.00374917818159,-0.146266709921,0.0321775352439,0.966135607413,-0.261665692033,9.56526728448
5879725,-0.0122790957504,-0.052384499919,-0.000644167504095,0.998551287128,-0.00413584401298,-0.141822663758,0.0282460124371,0.994357091987,-0.232416767515,9.4482575826
5879805,-0.0134356409064,-0.0544398975816,-0.0007325877266,0.998426384076,-0.0144008281287,-0.140433306245,0.0254614086915,1.02804939435,-0.2529352192,9.39576885376
5879885,-0.0136452439656,-0.0555078035447,-0.000758658139327,0.998364720681,-0.0231139589669,-0.139174001676,0.0233649563827,1.04730709511,-0.256627164235,9.3858234314
5879966,-0.0151181464016,-0.0558080594531,-0.000845128571932,0.998326693977,-0.0279161474084,-0.139269799057,0.0225327750588,1.05886171556,-0.285896810016,9.43683817749
5880045,-0.0143555484857,-0.055275936552,-0.000794813844326,0.998367596298,-0.0248377996128,-0.144009868162,0.0237362265104,1.06124550468,-0.274728177562,9.55052582275
5880127,-0.0137690664714,-0.0550691589504,-0.000759475707863,0.998387311487,-0.0187338903209,-0.147705289748,0.0253096775042,1.07057664363,-0.26682989726,9.67141084644
5880205,-0.0142722662767,-0.0549156463957,-0.000785035671178,0.998388680783,-0.0091118838852,-0.145665642084,0.0271051282235,1.07449938583,-0.278371500368,9.73388621367
5880285,-0.0144094352886,-0.0558032749403,-0.000805432731208,0.998337474985,-0.00546713033112,-0.135502362196,0.0252025682248,1.08523273697,-0.279310958082,9.67320916595
5880365,-0.0145941079365,-0.0557028778284,-0.000814285205618,0.998340392028,-0.00328027819867,-0.12557318371,0.0227839620412,1.07539217636,-0.280832313375,9.60280527374
5880445,-0.0134725268079,-0.0540500326638,-0.000729323101213,0.998447070744,-0.00707644765675,-0.117061536249,0.0183529679008,1.03165945377,-0.256366588952,9.49735601458
5880525,-0.0140490119363,-0.0533553879751,-0.000750734247516,0.998476471548,-0.0131853598848,-0.114508688141,0.0144173012322,1.01092648403,-0.265389750735,9.42834037511
5880605,-0.0139051283053,-0.0551138794559,-0.000767606822453,0.998382951817,-0.0253645084508,-0.120213710322,0.0124815912925,1.03583624808,-0.260508580665,9.34982086569
5880685,-0.0139744896354,-0.0575628418632,-0.000805826570279,0.998243749552,-0.0348004478977,-0.124488103753,0.0138743056974,1.08645571125,-0.262847122276,9.38554853748
5880765,-0.0144875578483,-0.0587620920019,-0.000852882951788,0.998166519075,-0.0374821811357,-0.127478429873,0.0168383846477,1.11467260766,-0.273827053883,9.43044831682
5880845,-0.0136789606313,-0.0567568544404,-0.000777701524463,0.998294015153,-0.0318544900336,-0.133103836098,0.0250021829398,1.09664740127,-0.26341618106,9.60965941002
5880925,-0.0131771080875,-0.0546145092533,-0.000720799937726,0.998420302102,-0.026349425065,-0.138181840079,0.0328802923453,1.07218532797,-0.257887917865,9.76770372096
5881005,-0.01191684846,-0.0546471305259,-0.000652242723372,0.998434401665,-0.0226206960224,-0.142505712652,0.0427154387261,1.0883932854,-0.236614447496,9.91017492056
5881085,-0.0112949954543,-0.0555553969394,-0.000628508900292,0.998391519358,-0.0212348387197,-0.144248656073,0.0524477371078,1.09979400103,-0.222892684611,9.84913249873
5881165,-0.0106426281545,-0.0559078331425,-0.00059597233056,0.998379032971,-0.0212547044611,-0.142314591695,0.0587128061982,1.0946634221,-0.207716442065,9.74115983615
5881245,-0.0109439373852,-0.0565869408283,-0.000620315211387,0.998337499832,-0.0268005947049,-0.13562018227,0.0637489178369,1.0961340579,-0.211299965337,9.63591423055
5881325,-0.0104923007758,-0.0570827479649,-0.000599940780087,0.998314134719,-0.0348107195273,-0.131603536614,0.0667705848201,1.1010865822,-0.201718491165,9.59479352246
5881405,-0.0110458505156,-0.0596625132959,-0.000660239846321,0.998157271064,-0.0455764552812,-0.132173379651,0.0660294446412,1.14930850816,-0.212010757785,9.57730370259
5881485,-0.0111052940613,-0.0633722763491,-0.000705229056567,0.997927918081,-0.052461586795,-0.135495115904,0.0626049301037,1.21176048697,-0.211482353108,9.50001158435
5881565,-0.0102127954939,-0.0656519769451,-0.000671975218565,0.997790090741,-0.0548899054574,-0.135785397409,0.0592731511968,1.2489922541,-0.193448218017,9.44812964958
5881645,-0.0113433900389,-0.0661502276094,-0.000752063803045,0.997744911934,-0.0542184463475,-0.131276975637,0.0547199434839,1.25768436491,-0.214710039209,9.44070308516
5881724,-0.0105682834226,-0.0660615995445,-0.000699725559218,0.997759333124,-0.0525385006972,-0.126443472266,0.0507109486717,1.25380166509,-0.199694392666,9.42475497854
5881806,-0.0126230719584,-0.0646460290736,-0.000817807688494,0.99782808147,-0.0494020829997,-0.124394750366,0.0470284816001,1.23686741507,-0.240484399271,9.50257447516
5881884,-0.0134035061994,-0.064635169519,-0.000868231887472,0.997818564197,-0.0492229926271,-0.12997655821,0.0452446914185,1.2460998985,-0.257296957922,9.57464471073
5881965,-0.0139829786805,-0.0647962175786,-0.000908041701528,0.997800131266,-0.0486898483421,-0.133325642916,0.0437487272481,1.2633709767,-0.271454635935,9.6825302969
5882045,-0.0148542353187,-0.066232947495,-0.000986114629022,0.997693127137,-0.0458158214023,-0.132780953371,0.0402970083771,1.29791506039,-0.289765469549,9.72810803532
5882125,-0.0148454422893,-0.0669098063363,-0.000995647347565,0.997648083918,-0.0432400251154,-0.129048619152,0.0373745969316,1.30978296445,-0.289259801749,9.71642919131
5882205,-0.0159415204082,-0.0674012268365,-0.00107706513666,0.997598006453,-0.0416945473434,-0.119572487576,0.0339183898184,1.31498834557,-0.309546535346,9.68212798598
5882285,-0.0169167054264,-0.0681005933889,-0.00115488520824,0.99753436056,-0.0433214010489,-0.112609738446,0.0292905251818,1.31499911208,-0.325070457829,9.58062324666
5882365,-0.0172823952074,-0.06848852321,-0.00118661047724,0.997501495217,-0.0451488933951,-0.109283469091,0.0256624262768,1.31356905099,-0.329835828164,9.51493199976
5882445,-0.017957346919,-0.0688294083161,-0.00123913347191,0.997466044931,-0.0441169384956,-0.109416157785,0.0222084967495,1.3129504345,-0.34083533601,9.46210972231
5882525,-0.0185884106066,-0.0696390539552,-0.00129785607852,0.997398209706,-0.0426463854329,-0.108644390879,0.0205618290946,1.32455027291,-0.351744603705,9.43257113734
5882605,-0.0195222490651,-0.0695784436088,-0.00136188971021,0.997384513231,-0.0404869834109,-0.106478570489,0.0217022788089,1.33246785661,-0.371937113786,9.49649026297
5882685,-0.0209118490613,-0.0682699279681,-0.00143130502072,0.997446671692,-0.0374885819519,-0.103476318009,0.0232379287604,1.31591001206,-0.401051451621,9.55950201545
5882765,-0.0213649506193,-0.06738693315,-0.00144333101783,0.997497096197,-0.0348381609535,-0.0999722062758,0.0254363889157,1.30382052384,-0.411337449342,9.59706964677
5882845,-0.0212965691408,-0.0682879842886,-0.00145803635147,0.997437256911,-0.0315451481087,-0.0999981895429,0.0284582252548,1.33319811631,-0.413678325318,9.68209888889
5882924,-0.0211919219163,-0.06958606165,-0.00147858101471,0.997349736185,-0.0282922702174,-0.101716539749,0.0294199469353,1.36854176407,-0.414604010572,9.75083352645
5883006,-0.0204017276771,-0.0718887909099,-0.00147076943593,0.997202892137,-0.0254891633597,-0.0980649591966,0.0265914594519,1.41584475083,-0.399597110933,9.76071026724
5883086,-0.0199322912765,-0.0716480793574,-0.00143207757755,0.997229765722,-0.024658679368,-0.0890629698818,0.0210631564087,1.39873671134,-0.387001668659,9.67613548896
5883166,-0.0200476450402,-0.0711964425024,-0.00143124289823,0.997259800677,-0.0250117690959,-0.0815333259856,0.015192034214,1.37793740034,-0.385908747778,9.59354773991
5883246,-0.0204250523556,-0.0718803763625,-0.0014722783852,0.997203019012,-0.0277777633014,-0.0757384694634,0.00911522052838,1.37431635988,-0.388365457407,9.475520923
5883326,-0.0205530626077,-0.0730607301673,-0.00150596714849,0.997114553794,-0.0311401200705,-0.0726872456116,0.00546913231703,1.3877060464,-0.388163542022,9.410690337
5883406,-0.0207413234714,-0.0739121946064,-0.00153757588711,0.997047852838,-0.0335832241935,-0.0746877218537,0.00328147939022,1.40890796744,-0.393070216278,9.44242093438
5883486,-0.0206641605943,-0.0753778366403,-0.00156240116319,0.996939683789,-0.0354747767287,-0.0780164579063,0.00367164787998,1.43838853168,-0.391944078009,9.4494882845
5883566,-0.0199013468566,-0.0752059740781,-0.00150125155562,0.996968276376,-0.0383124684957,-0.0783109392919,0.00731126946553,1.43740209728,-0.378100285917,9.46569970288
5883646,-0.0193252693629,-0.0737818310842,-0.00143002066862,0.997086119855,-0.0417178438018,-0.0759334877546,0.0154547032773,1.41262879987,-0.367878649333,9.48572162104
5883726,-0.0196616013029,-0.0721370628456,-0.00142231278539,0.997199901035,-0.042483998801,-0.0732299466478,0.0207664536259,1.3831601913,-0.374913776514,9.50276259543
5883806,-0.0202785938494,-0.0708543000209,-0.00144074514149,0.997279484926,-0.0391124812474,-0.0677766114305,0.0252305740194,1.36212714383,-0.387753978799,9.52974659168
5883886,-0.0201240811582,-0.0699790839834,-0.00141201443797,0.99734445172,-0.034109740285,-0.0645046103002,0.0279090462555,1.34974673552,-0.386120713695,9.56317524139
5883966,-0.0213270877856,-0.069359915876,-0.00148315669083,0.997362600884,-0.0311080957075,-0.0646698599293,0.0278133693513,1.34519153252,-0.411476972895,9.61603299395
5884046,-0.0219813060651,-0.0703551809909,-0.00155071892425,0.997278579917,-0.030158489084,-0.0694516003828,0.0226476824713,1.38076563729,-0.429084930075,9.72795340111
5884128,-0.0229084229066,-0.0711539671603,-0.00163460057326,0.997200905133,-0.0295887251099,-0.0731720247779,0.0178455100974,1.40977154546,-0.451381292518,9.81808998134
5884206,-0.0225882420928,-0.0718436498446,-0.00162744570297,0.997158770065,-0.0313753170327,-0.0715730688618,0.0145385166116,1.42525972903,-0.445605496702,9.82955513993
5884286,-0.0230605502399,-0.0723538705166,-0.00167335440207,0.997110990978,-0.0337243423708,-0.0655054145746,0.0138313907045,1.42162395021,-0.450519725023,9.73372298386
5884366,-0.0258960045308,-0.0742622966447,-0.00192907576655,0.996900590286,-0.0330053072663,-0.0622905120637,0.0121300449759,1.48456476808,-0.51452040435,9.89577198245
5884446,-0.0286543663191,-0.0763537846643,-0.00219518686554,0.996666548056,-0.018100424114,-0.0433339680987,0.0102578574157,1.54794721656,-0.577102248713,10.0269990452
5884526,-0.0303418760725,-0.0822193044378,-0.00250433180771,0.99614912782,-0.00192076317767,-0.016635199507,0.0108373051255,1.65804215562,-0.607229330185,9.95729477989
5884606,-0.0315405399261,-0.0875121874224,-0.00277221263967,0.995660145949,0.0128953141216,0.0138575237376,0.0133134240587,1.74995649698,-0.625305579068,9.85825080104
5884686,-0.031922314863,-0.091114471061,-0.00292224821762,0.995324358911,0.0251904809929,0.0355586781762,0.0135220252342,1.80989350512,-0.628250462919,9.78254384244
5884764,-0.0312070447418,-0.0943087351527,-0.00295773961291,0.995049362901,0.0423584525293,0.0583702422529,0.00811321514054,1.85112295366,-0.606554216961,9.65882927299
5884846,-0.0333172817833,-0.0982787151539,-0.00329217184812,0.994595603493,0.0552133758199,0.0826994322355,0.00486792908432,1.90890060569,-0.640223401758,9.54342026277
5884926,-0.0351482082544,-0.101997637733,-0.00360610479032,0.994156970182,0.0612235695485,0.10155384684,0.00292075745059,1.96631211268,-0.669762299112,9.45813370551
5885006,-0.0357624369185,-0.104615227372,-0.00376439973299,0.993862430924,0.0648296857856,0.124785817323,-0.0020787560828,2.00530800003,-0.677190570385,9.39546960319
5885086,-0.0356816869491,-0.105638130645,-0.00379302649475,0.993757020363,0.0695474958966,0.146387420719,-0.00720691451015,2.01745278464,-0.673028407172,9.3578711418
5885166,-0.037008952447,-0.104291421544,-0.00388359896401,0.99385036826,0.0774864627008,0.173821844847,-0.0124122598739,1.99409387415,-0.699022109001,9.37074624953
5885246,-0.0371963469428,-0.102113499386,-0.00382090809516,0.9940697489,0.0865067433979,0.203053201167,-0.0159611571536,1.95182694827,-0.702647321797,9.37392233102
5885326,-0.0367517358693,-0.0997671320367,-0.00368754203849,0.994325012916,0.0961758124308,0.226977365882,-0.0189418756443,1.90084883498,-0.692372600842,9.35140712298
5885406,-0.0354259510406,-0.0967784727676,-0.0034468434709,0.994669316141,0.114747955694,0.254528256615,-0.023710137169,1.83243358077,-0.663702272663,9.30390033458
5885486,-0.035028670536,-0.0926846690748,-0.00326269336477,0.995073815951,0.133127972697,0.277869832039,-0.0291252344526,1.7466128572,-0.653682680737,9.27156553888
5885566,-0.0315159373642,-0.0857989567435,-0.00271541163718,0.995810178324,0.159480825112,0.305071169199,-0.0408880940519,1.6201819111,-0.590210085737,9.31369564413
5885646,-0.0312637848962,-0.0785315617423,-0.00246401939337,0.996418234565,0.183380647728,0.324371801925,-0.0577366812252,1.50577669671,-0.59522215862,9.47472494141
5885726,-0.0316790315692,-0.0731864738928,-0.00232589085005,0.996812303912,0.194740710868,0.334675111376,-0.069548593775,1.42252893795,-0.611876351813,9.61587467066
5885806,-0.027428621095,-0.0671699786785,-0.00184725156083,0.997362748638,0.189211736969,0.339154336801,-0.0698247003215,1.30865509836,-0.53160746514,9.65699003799
5885886,-0.0250781691559,-0.0616038547147,-0.00154834243994,0.997784372072,0.1829145222,0.342693252178,-0.0674362238806,1.2087273327,-0.489910477619,9.73912009823
5885966,-0.0228784100071,-0.0555609617749,-0.00127344843295,0.998192334278,0.173176532478,0.348222121897,-0.0672802082005,1.09394345528,-0.448851133984,9.78600393272
5886046,-0.020670289382,-0.0489428463039,-0.00101309413902,0.998587157224,0.156265797046,0.350262373544,-0.0642067683622,0.957796062184,-0.403385973359,9.73919572145
5886126,-0.0172359395386,-0.0434941086706,-0.000750483824003,0.998904711008,0.143139525357,0.347655313978,-0.0593828740289,0.848813727398,-0.335644868927,9.72284238282
5886206,-0.0130733138282,-0.0380451910748,-0.00049777973784,0.999190374312,0.137392212651,0.336725896887,-0.0530830169373,0.739131595814,-0.253580517548,9.68860952271
5886289,-0.010230788446,-0.0352405196344,-0.000360781313862,0.99932642644,0.134369515089,0.325059965895,-0.0484517225594,0.680026081512,-0.19715930174,9.62784721875
5886366,-0.00661658989979,-0.0341124474704,-0.00022584446897,0.999396072966,0.130001756183,0.305715395517,-0.0431188055639,0.655097260235,-0.12691470702,9.5842072314
5886446,-0.00297551359272,-0.0312268426895,-9.29616422434e-05,0.9995078899,0.124401270409,0.285594852061,-0.0369392249363,0.598720278749,-0.056995210931,9.57238844895
5886526,0.000278672111495,-0.0306391122725,8.54227693835e-06,0.999530473306,0.118912528638,0.272245455803,-0.0323800964369,0.584047703138,0.005307200834,9.51765256644
5886606,0.00201524347137,-0.0302284829724,6.09457281702e-05,0.999540981599,0.110511002837,0.258701847249,-0.026664788907,0.576201838435,0.0383790849047,9.51761159968
5886686,0.00241057842014,-0.0309151230431,7.4559183697e-05,0.999519103729,0.101213186742,0.245893091441,-0.0219585342047,0.590647932895,0.0460117868803,9.5388954144
5886766,0.00397982072163,-0.0326560524427,0.00013003562031,0.999458716684,0.0841408654257,0.230971106911,-0.0178577111989,0.622060505343,0.0757305254973,9.50880949351
5886846,0.00399779702732,-0.0350603432367,0.000140251485829,0.999377191195,0.0632552210993,0.213929805025,-0.014120147211,0.672272090559,0.0765629368804,9.56928775543
5886926,0.00458813962553,-0.0371611806165,0.000170620334982,0.999298737375,0.0464669338888,0.200725193464,-0.0118776088183,0.716285411318,0.088315131513,9.61706688055
5887006,0.00574878465706,-0.0367790072497,0.000211581246851,0.999306865449,0.0372453416854,0.194079496711,-0.0130862261515,0.713723563685,0.111407599416,9.68236564103
5887086,0.00768943242453,-0.0361437062993,0.000278114544782,0.99931698063,0.0351179068551,0.190517768721,-0.0159398468587,0.704525009793,0.149683937091,9.72561504013
5887167,0.00932597890629,-0.0332053661002,0.000309856911829,0.999404989866,0.0363955863257,0.182846761128,-0.017652019283,0.648727642595,0.18198712617,9.7501281586
5887246,0.0117159539963,-0.032234579109,0.000377881195135,0.999411589655,0.0329052933934,0.17185880565,-0.013571042,0.627220230576,0.22770525788,9.710487652
5887330,0.0117357894409,-0.0322155380824,0.000378297221497,0.999411970733,0.0269799070809,0.161860511872,-0.00814262520001,0.62485027067,0.227363397648,9.67952074305
5887406,0.0116130772976,-0.0313529025637,0.000364307385899,0.99944084328,0.0161879442486,0.151178944929,-0.00233143475123,0.606190042773,0.224285239516,9.64968784989
5887486,0.0119985078977,-0.0303301057917,0.000364109774033,0.999467852367,0.00375310568866,0.144344314702,0.00243234970242,0.585895939726,0.231536310946,9.64184376096
5887566,0.0123714337719,-0.0293013052266,0.000362682675644,0.99949399678,-0.00583624775458,0.14152060675,0.00358786012876,0.566058032586,0.238759995796,9.64312281175
5887646,0.0117813512418,-0.0276400368062,0.000325784086805,0.999548459052,-0.00563019896006,0.136846551548,-0.00125280441444,0.534283414522,0.227531895915,9.65059400687
5887726,0.0117393713783,-0.0272036234271,0.000319493719125,0.999560927586,-0.00550656968335,0.129785217813,-0.00543427332475,0.522640668831,0.225344019141,9.59210922029
5887806,0.0117734405982,-0.0268857152805,0.000316673817283,0.999569129239,-0.00926360267048,0.119588756711,-0.00709177454801,0.514218500419,0.22498897374,9.54935690302
5887886,0.0114931461204,-0.0268786827174,0.000309052722411,0.999572582904,-0.0132205827086,0.112619499927,-0.00851196534342,0.514911283357,0.21998754318,9.56488578122
5887966,0.010479460753,-0.0267794141055,0.000280749938123,0.999586396997,-0.020703051469,0.107160875672,-0.00851269969775,0.512693331294,0.200466693388,9.55959847801
5888046,0.008569342516,-0.0268335708702,0.000230037348259,0.999603157721,-0.0290237432784,0.103460011058,-0.00510761981865,0.514235602048,0.164093906414,9.56983362538
5888126,0.00748437678058,-0.0275685553834,0.000206417700042,0.999591874842,-0.0357189186099,0.101239492289,-0.00306457189119,0.529765594627,0.143706755225,9.59584658758
5888206,0.00478383941467,-0.0283793551145,0.000135818537873,0.999585768525,-0.0422901641776,0.0977787307207,0.000289707172596,0.547463295985,0.0922095572856,9.63324160001
5888285,0.00293912134881,-0.0294545252329,8.66083760252e-05,0.999561796493,-0.0470842916411,0.0939995135338,0.00400503485672,0.569334664603,0.0567622553674,9.65184788481
5888366,0.00109427311868,-0.0293970518939,3.21823317255e-05,0.999567213783,-0.0508121482422,0.0866237024841,0.0083626817745,0.568092275812,0.0211286642556,9.64984354656
5888446,-0.00108017401295,-0.029725916747,-3.2123377275e-05,0.999557503131,-0.0556030025716,0.0804954556084,0.0105515798637,0.574050607187,-0.0208416246888,9.64289485963
5888526,-0.00229679258814,-0.0298890810179,-6.86798858322e-05,0.999550580442,-0.0597545853536,0.0763928174215,0.0110135385943,0.577625606011,-0.0443478568934,9.6497389751
5888606,-0.0036440480629,-0.0300757139984,-0.000109647678383,0.999540974807,-0.0630969151457,0.0743569245709,0.00831088340243,0.579770605306,-0.0701831843509,9.62511502447
5888686,-0.00541410556185,-0.0297580512509,-0.000161186981043,0.999542455259,-0.0668050732668,0.0735610789219,0.00498653004146,0.574114420068,-0.104359153775,9.63284614969
5888766,-0.00825335198911,-0.0320650121384,-0.00026478902263,0.999451673201,-0.0698813482625,0.0718065013482,0.00299191802488,0.616928800967,-0.158622978837,9.60348716125
5888846,-0.0108366044467,-0.0319681068904,-0.000346623276266,0.999430081596,-0.0657674523993,0.0690509945581,0.00179515081493,0.613408169252,-0.20770126533,9.57653438171
5888926,-0.0124404190506,-0.0320389562681,-0.000398813694339,0.99940911653,-0.0615963546356,0.068249070607,0.00107709048896,0.613929412049,-0.238105917889,9.56251749548
5889006,-0.0135617132897,-0.0325935976717,-0.000442300767389,0.999376576518,-0.0612221462847,0.0690449864207,0.000646254293373,0.62549490553,-0.259940011915,9.57565517869
5889086,-0.0145215612098,-0.0324224188201,-0.000471121584329,0.999368645227,-0.0605719312127,0.0699482259704,-0.00174069773129,0.624293915974,-0.279265392647,9.60724038504
5889166,-0.016515921193,-0.032055457368,-0.000529770031531,0.999349484086,-0.0563505916163,0.0709158597616,-0.00444993913047,0.617827238257,-0.317915099846,9.61541760139
5889246,-0.01831579549,-0.0315325453011,-0.000577928131101,0.999334726817,-0.0516893375512,0.0736248903437,-0.00777824421583,0.607004046811,-0.352118251802,9.60260683891
5889326,-0.0194281708053,-0.0321872960193,-0.000625782828288,0.999292816221,-0.0480412049892,0.0773787590003,-0.0110522974514,0.618227224229,-0.372640142976,9.5795974908
5889406,-0.0200072671893,-0.0322515462301,-0.000645730677352,0.999279305328,-0.0424468049603,0.0830366006859,-0.0121653492699,0.620651567692,-0.384474437348,9.59739534384
5889486,-0.0198448882679,-0.0312491546941,-0.00062056143545,0.999314407804,-0.0373874046971,0.0864313056973,-0.011981800238,0.602713140322,-0.382237627497,9.62004506397
5889566,-0.0203603122862,-0.0294467705799,-0.000599930127728,0.999358787158,-0.0317976241704,0.0880424386426,-0.0105946006345,0.567529226967,-0.391908869223,9.61400244244
5889646,-0.0205851375068,-0.0275769525962,-0.000568011882648,0.999407545079,-0.0250382353627,0.0890091184099,-0.00976228087239,0.531814248827,-0.396514513428,9.62115077698
5889726,-0.0206690413348,-0.0270027842647,-0.000558444726114,0.999421496923,-0.0192798418323,0.0883120560858,-0.00841150889221,0.519722648417,-0.397362538623,9.60269486194
5889806,-0.0202985791668,-0.0262920470257,-0.000533985929898,0.99944805308,-0.0136963554067,0.0849139882611,-0.00504690533533,0.505045663025,-0.38949164793,9.5846781281
5889886,-0.0195296308174,-0.0254220198081,-0.000496738033668,0.999485901692,-0.0107719536128,0.0820237674434,-0.0030281432012,0.488578026477,-0.374952886707,9.59086691959
5889966,-0.0199930267323,-0.0239662876871,-0.000479392231365,0.999512714336,-0.00646317216766,0.0785868747069,-0.00181688592072,0.460980352263,-0.384186142425,9.5993685978
5890046,-0.0197348943645,-0.0218223113058,-0.000430847576713,0.999566973766,0.000378997314023,0.0748219788192,-0.00109013155243,0.420719151299,-0.380149289215,9.62338379784
5890126,-0.0192136064362,-0.0200879795299,-0.000386111762676,0.999613505973,0.00661274931034,0.0712859711022,-0.000654078931458,0.387703884578,-0.370544572308,9.6353987162
5890206,-0.0172826266353,-0.0190623881919,-0.000329557267837,0.999668858955,0.0124814508154,0.0636303956729,-0.000392447358875,0.366937043882,-0.332460019752,9.61220130614
5890286,-0.0162130554362,-0.0178662776104,-0.000289751301118,0.999708882126,0.01642836178,0.0564829100466,-0.000235468415325,0.343224191661,-0.311285229381,9.59445213744
5890364,-0.0160935503671,-0.0175312918552,-0.000282220668666,0.999716745781,0.0200735785431,0.0487888981791,-0.000141281049195,0.336657925641,-0.308875422296,9.59098524121
5890446,-0.0148928250637,-0.0165954408601,-0.000247214470905,0.999751336078,0.0222607086009,0.0403412805055,-8.4768629517e-05,0.319789477064,-0.286839403768,9.62553638886
5890525,-0.0135086309631,-0.0159113393433,-0.000214987251398,0.999782126241,0.0231472965742,0.0339956397169,-5.08611777102e-05,0.30775304659,-0.261167944019,9.66278706891
5890605,-0.011559650247,-0.0162161809101,-0.000187490565091,0.999801667737,0.0258076996654,0.0259313546292,-3.05167066261e-05,0.312981036938,-0.223020152398,9.64323894789
5890685,-0.0105090816589,-0.0167844587979,-0.000176423847332,0.99980388578,0.0295323918275,0.0176872630848,-1.83100239757e-05,0.322821595796,-0.202046838753,9.60996226034
5890764,-0.00978929583252,-0.0173542870813,-0.000169919985256,0.999801465059,0.0326185872477,0.00890959760504,-1.09860143854e-05,0.333035494099,-0.187786909404,9.58855972681
5890845,-0.00881612754354,-0.0188394256785,-0.000166126723012,0.999783638762,0.0331932343154,0.00236592813279,-6.59160863124e-06,0.361669328686,-0.169175304822,9.59175935781
5890926,-0.00777227123026,-0.0206180195489,-0.000160287757678,0.999757202213,0.033538022556,-0.00283734373495,-3.95496517874e-06,0.395848461225,-0.14914979593,9.59200319525
5891005,-0.00678806862221,-0.0226654238187,-0.000153897535953,0.999720049315,0.0316164451931,-0.00595930685559,-2.37297910725e-06,0.435748974196,-0.130430725947,9.60412050602
5891085,-0.00579309330004,-0.0239872943406,-0.000139002964862,0.99969546886,0.028335048468,-0.00698110460505,-1.42378746435e-06,0.461125802975,-0.111298418478,9.6027717665
5891165,-0.00538673855843,-0.0251838197444,-0.000135703663746,0.99966831492,0.0246634501871,-0.0067428031318,-8.54272478609e-07,0.483773925388,-0.103410336487,9.59501933798
5891245,-0.00489608802683,-0.0263622717602,-0.000129118426816,0.999640456503,0.0224604912186,-0.00702551230932,-5.12563487165e-07,0.507179025643,-0.0941285041385,9.60880323365
5891325,-0.00401150728047,-0.0271756009054,-0.000109056276529,0.999622620108,0.020713025776,-0.0063437576929,0.00170245270776,0.524095127788,-0.0773066569265,9.63167820117
5891405,-0.003196111682,-0.0280806769493,-8.97848445144e-05,0.999600546414,0.0188131663875,-0.00380625461574,0.00102147162465,0.540469713392,-0.0614674646149,9.61188435845
5891485,-0.00267749290173,-0.0283465860397,-7.59285669342e-05,0.999594565975,0.017247560693,-0.00228375276944,0.000612882974792,0.545506061433,-0.0514851088959,9.61030311995
5891565,-0.00205679865103,-0.0282336096355,-5.80941323396e-05,0.999599234439,0.0137540569075,0.00160957876857,0.000367729784875,0.542781786274,-0.0395101913141,9.60073525088
5891645,-0.00215558638771,-0.0280761432849,-6.0544560542e-05,0.999603461359,0.00825243414449,0.00564833793722,0.000220637870925,0.539950120348,-0.0414232070736,9.60433191591
5891725,-0.002177415648,-0.0277575189643,-6.04630969279e-05,0.999612312522,0.0049514604867,0.00892297356134,0.000132382722555,0.533941557805,-0.0418527560313,9.60672933509
5891805,-0.00260248075981,-0.0273032844864,-7.1083013588e-05,0.999623805588,-8.95413821628e-06,0.0117391350587,7.94296335331e-05,0.525069176626,-0.0500113508844,9.60457648411
5891886,-0.00284371834697,-0.026358304072,-7.49819481429e-05,0.999648511953,-0.00383658303609,0.0138545220186,4.76577801198e-05,0.50705647912,-0.0546670876302,9.60831259701
5891966,-0.00309392382332,-0.0247950999364,-7.67381108234e-05,0.999687763637,-0.00655885043627,0.0151237541946,2.85946680719e-05,0.476137566671,-0.0593758910059,9.59235833213
5892045,-0.00364453253025,-0.022660218501,-8.26076641595e-05,0.999736577832,-0.00861790093785,0.0154596034387,1.71568008431e-05,0.434601883265,-0.0698626183438,9.58182809254
5892125,-0.00439394742216,-0.0212452961491,-9.33726910741e-05,0.999764633251,-0.0111304014232,0.0152354229237,1.02940805059e-05,0.407765111892,-0.084294940391,9.58963573858
5892205,-0.00488159519164,-0.01980389839,-9.66947313826e-05,0.999791961504,-0.0151920420831,0.0133981543688,6.17644830353e-06,0.3801708811,-0.0936725941174,9.59216554471
5892287,-0.00621425154793,-0.019089761903,-0.00011865249631,0.999798454685,-0.0180547165406,0.011444413113,3.70586898212e-06,0.366966224949,-0.119410480299,9.60541501652
5892365,-0.00733201211791,-0.0185722110737,-0.000136198830863,0.999800628137,-0.0197723212151,0.00856940811364,2.22352138927e-06,0.356888649764,-0.140838716158,9.60187253164
5892446,-0.00820492589154,-0.0183195086785,-0.000150340503817,0.999798505795,-0.0199515038968,0.00514164486819,1.33411283356e-06,0.351320944986,-0.157286960163,9.5822693686
5892525,-0.00920728776602,-0.0180581981258,-0.000166301196799,0.999794528729,-0.0196333234444,0.000956536613601,8.00467700138e-07,0.345825540624,-0.176253872875,9.56859210944
5892605,-0.00974599772827,-0.0192735535831,-0.000187883837481,0.999766727972,-0.01859103505,-0.003257288585,4.80280620083e-07,0.368864516269,-0.186436919672,9.56158285477
5892685,-0.0101523213797,-0.0199058168558,-0.000202140726039,0.999750292806,-0.0188170421363,-0.00578558370416,2.8816837205e-07,0.380533120162,-0.193983268747,9.550194697
5892765,-0.0103759455971,-0.0207705041322,-0.000215571738312,0.999730403379,-0.0202297165725,-0.00687687071419,1.7290102323e-07,0.398068769802,-0.198750498357,9.57376816341
5892845,-0.0115866733855,-0.0220427487325,-0.000255481367019,0.999689852383,-0.0193745609884,-0.00838302304313,1.03740613938e-07,0.423434209879,-0.222440390567,9.59461600791
5892925,-0.0122524925989,-0.0230584442965,-0.000282619793071,0.999658994206,-0.0184357775764,-0.00971240450196,6.22443683627e-08,0.442963036914,-0.235217804897,9.59395660548
5893005,-0.0123426217766,-0.0247308316614,-0.000305359978488,0.999617903205,-0.0161697472834,-0.0105100333773,3.73466210176e-08,0.475509887578,-0.23713816951,9.60122240933
5893085,-0.0125088311633,-0.0252608502005,-0.00031610933826,0.999602580361,-0.0135330589232,-0.010562920641,2.24079726106e-08,0.485461191336,-0.240205749607,9.596005085
5893165,-0.0125875801971,-0.0256358490675,-0.000322825004871,0.999592042711,-0.0106739757227,-0.00974327287628,1.34447835663e-08,0.493347334919,-0.242046297664,9.60891584153
5893245,-0.0128881248347,-0.0252359770136,-0.000325375096858,0.99959838727,-0.00895852580238,-0.00840010409454,8.06687013981e-09,0.485868592602,-0.247939029819,9.61331041312
5893325,-0.0130280876483,-0.0246665955779,-0.000321483694943,0.999610786578,-0.00835494591166,-0.00504006245672,4.84012208388e-09,0.474677582563,-0.250516988448,9.60900397126
5893405,-0.0132859078991,-0.0251549751501,-0.000334342018638,0.999595218122,-0.005012967547,-0.00302403747403,2.90407325033e-09,0.483525287331,-0.255176225784,9.59756156
5893485,-0.0131602432896,-0.0248270169575,-0.000326858665616,0.999605082214,-0.0030077805282,-0.00181442248442,1.7424439502e-09,0.477102322057,-0.252704524533,9.59548451657
5893565,-0.01333383499,-0.0243928236028,-0.000325375651704,0.999613471864,-0.00180466831692,-0.00108865349065,1.04546637012e-09,0.468699559738,-0.256009907102,9.59447771067
5893645,-0.0129078712844,-0.0237474533332,-0.000306641114895,0.99963460889,0.000619959255696,-0.000653192094392,6.27279822071e-10,0.456475297366,-0.247937489672,9.59890145062
5893725,-0.0124305916072,-0.0226163676051,-0.000281228507923,0.99966689513,0.00335180598365,-0.000391915256635,0.00170276062222,0.43429668965,-0.238545056059,9.59030294679
5893805,-0.0119869818207,-0.0215003307371,-0.000257802201964,0.99969694487,0.00541660408189,-0.000235149153981,0.00102165637333,0.412849239376,-0.230036553899,9.59088992847
5893884,-0.0112368483441,-0.0213216209795,-0.000239657444296,0.999709489943,0.00665548294083,-0.000141089492389,0.000612993823998,0.409318155686,-0.215594066128,9.58908733599
5893966,-0.0111990212929,-0.0209768426201,-0.00023498655915,0.999717209403,0.00782450031766,-8.46536954331e-05,0.000367796294399,0.402171681986,-0.214590018779,9.5767530327
5894045,-0.0112170931816,-0.0209754799245,-0.000235350508729,0.999717035302,0.00852591074375,-5.07922172599e-05,0.000220677776639,0.401714520422,-0.214705850867,9.56647940873
5894125,-0.0106023610622,-0.0211129694667,-0.000223909829317,0.999720852201,0.00937244706087,-0.00215892563767,0.000132406665984,0.404552685642,-0.203043761985,9.57156798215
5894205,-0.00979689659145,-0.0205962594051,-0.000201831929483,0.999739853252,0.00988036885114,-0.00427518581283,7.94439995901e-05,0.395242257137,-0.187906223011,9.58659213451
5894285,-0.00886061706851,-0.020362323732,-0.00018046725898,0.999753385925,0.00975943186384,-0.00554494191793,4.76663997541e-05,0.391331941196,-0.170204573651,9.6013527099
5894365,-0.0083345617199,-0.0206685311913,-0.000172305944887,0.999751627761,0.00926117961,-0.00715817570392,2.85998398524e-05,0.397126037276,-0.160062424366,9.5991957275
5894445,-0.00811250436897,-0.0210806116394,-0.000171060199974,0.999744850361,0.00853653819624,-0.00855180603697,1.71599039115e-05,0.404672637747,-0.155653075958,9.59024009275
5894525,-0.00735052730517,-0.0211789625294,-0.000155715678865,0.999748666939,0.00725037322505,-0.00981367429827,1.02959423469e-05,0.406566976203,-0.141036458612,9.59061279589
5894605,-0.0068692912881,-0.0221254920414,-0.000152027255339,0.999731590141,0.00435022393503,-0.010570795255,6.17756540813e-06,0.424702411063,-0.131787647872,9.58939989677
5894685,-0.0064304226885,-0.0227048753436,-0.000146042615539,0.99972151971,0.00261013436102,-0.0110250678291,3.70653924488e-06,0.435823092146,-0.123365319436,9.58915099763
5894764,-0.00594053044228,-0.023169663992,-0.000137679486038,0.999713887976,0.00156608061661,-0.0112976313735,2.22392354693e-06,0.444889702455,-0.114002359386,9.59211412031
5894844,-0.00592553346634,-0.0236649979996,-0.000140269485497,0.999702373833,0.000939648369967,-0.0110354794387,1.33435412816e-06,0.454160391298,-0.113651827009,9.58670938893
5894925,-0.00603882732372,-0.0236666218829,-0.000142961294379,0.999701657063,0.00056378902198,-0.0108781882779,8.00612476893e-07,0.455173821448,-0.116075129408,9.60740856671
5895006,-0.00647252672177,-0.0236406345639,-0.000153060624997,0.999699556551,-0.00136448683266,-0.00993243345842,4.80367486136e-07,0.453148257713,-0.123993455331,9.57505650233
5895085,-0.00659840058539,-0.0233502636695,-0.000154119772812,0.999705557924,-0.00337283246837,-0.00893929050528,2.88220491682e-07,0.447383936317,-0.126350249224,9.57096815433
5895165,-0.00688178175116,-0.0235536634951,-0.000162139996097,0.999698874525,-0.00500352991126,-0.00749202461048,1.72932295009e-07,0.45230504929,-0.132073888548,9.59245716213
5895245,-0.00757560136351,-0.0230815876463,-0.000174908528222,0.999704866439,-0.00598194837699,-0.0066236650736,1.03759377005e-07,0.443765549105,-0.145563719115,9.60391404581
5895325,-0.00747937907778,-0.0227704816623,-0.000170358003518,0.999712726253,-0.00742037957935,-0.00610264935147,6.22556262032e-08,0.438163008662,-0.143841390649,9.61246411718
5895405,-0.00795348880392,-0.0227840549479,-0.000181265518506,0.999708755588,-0.00785774823931,-0.00664142004112,3.73533757219e-08,0.438153366721,-0.152863640542,9.60634141221
5895485,-0.00880252440965,-0.023004995947,-0.000202563500932,0.999696576314,-0.00854585949674,-0.00653899239344,2.24120254332e-08,0.44269656471,-0.169290318114,9.61224459586
5895565,-0.00927120813497,-0.0227011206213,-0.000210530123841,0.999699284535,-0.00981010637413,-0.00647753580484,1.34472152599e-08,0.436563937361,-0.178188643993,9.60597027924
5895645,-0.00896455655402,-0.0220524608901,-0.000197746573563,0.999716603138,-0.0105686545006,-0.00686635191314,8.06832915594e-09,0.424025814809,-0.172274891718,9.60507873127
5895725,-0.00960207508912,-0.0220218337792,-0.000211516354587,0.999711355468,-0.0101724032535,-0.00795102170104,4.84099749356e-09,0.423446126093,-0.18452837131,9.60502264281
5895805,-0.0103731500164,-0.0212990526281,-0.00022100030064,0.999719310244,-0.00908327238233,-0.0107302738811,2.90459849614e-09,0.4094513634,-0.199302484212,9.60283420825
5895885,-0.0106334507093,-0.0207721136531,-0.000220939416632,0.999727663019,-0.00800410379817,-0.0128235152506,1.74275909768e-09,0.399378564622,-0.204336229297,9.6043941895
5895965,-0.0112956112015,-0.0204199313585,-0.000230718440611,0.999727654084,-0.00693091258621,-0.0149308401952,1.04565545861e-09,0.392377204691,-0.216933282988,9.5986264136
5896045,-0.012223076135,-0.0207663330581,-0.000253902202321,0.999709603512,-0.00586130779758,-0.0170466152849,6.27393275166e-10,0.398710876037,-0.234547162176,9.59013792458
5896125,-0.012371923886,-0.0202993337442,-0.000251212813609,0.999717364779,-0.00351678467855,-0.0200188405846,3.76435965099e-10,0.389821810046,-0.237454044376,9.59222743614
5896205,-0.0127817956431,-0.0200203331013,-0.000255968032033,0.999717833413,-0.00211007080713,-0.0235049360102,2.2586157906e-10,0.384248950286,-0.245183677846,9.58677737843
5896286,-0.0133667425564,-0.0197688310754,-0.000264320157637,0.999715186264,-0.00126604248428,-0.0264479733885,1.35516947436e-10,0.380665814263,-0.257243483075,9.61798384771
5896364,-0.0134166461883,-0.018625084592,-0.000249952036569,0.999736483956,-0.000759625490566,-0.0307679361843,8.13101684615e-11,0.359362319368,-0.258733282228,9.63790483011
5896446,-0.0134276304361,-0.0181720000798,-0.000244069218038,0.999744676197,-0.000455775294339,-0.0354883641691,4.87861010769e-11,0.35088978542,-0.259148321387,9.64554785656
5896525,-0.0141810677063,-0.0165863183758,-0.000235267735333,0.999761839645,0.00440912549948,-0.0421518315131,2.92716606461e-11,0.320906567785,-0.274241395176,9.66497772273
5896605,-0.0142590213845,-0.0149543428817,-0.000213279834788,0.999786478429,0.010307896406,-0.0525352628414,1.75629963877e-11,0.290706208737,-0.277072315133,9.71159098666
5896685,-0.0134438691189,-0.0126438771646,-0.000170011588099,0.999829668418,0.0151242291343,-0.0625965321916,1.05377978326e-11,0.246728615379,-0.262250875652,9.75009343233
5896765,-0.0127680288089,-0.00987272672834,-0.000126071681775,0.999869736922,0.0188654088942,-0.0779984751538,6.32267869956e-12,0.192808740272,-0.249287869141,9.7593085301
5896845,-0.0123944086676,-0.00740021858459,-9.17308919035e-05,0.999895798063,0.0211101167502,-0.0927736117302,3.79360721974e-12,0.144655084251,-0.242228325733,9.76914715175
5896924,-0.0123986787662,-0.00340604525036,-4.22339523396e-05,0.999917331501,0.0228826315252,-0.113558015397,2.27616433184e-12,0.0664423364395,-0.241823322344,9.74967178715
5897005,-0.0124270388785,-0.00104166569961,-1.29458268315e-05,0.999922238711,0.0235204503287,-0.137096599195,-0.00212845030594,0.0202329482504,-0.241340900145,9.70805904763
5897085,-0.0115026132663,4.07144565241e-05,4.68353633119e-07,0.999933841927,0.0243288316723,-0.15888217058,-0.00468259067526,-0.000788920014597,-0.222855514208,9.68524618541
5897165,-0.0109725788794,0.000222737196823,2.44414866127e-06,0.999939774634,0.0265166207243,-0.188129735747,-0.00876921526563,-0.00430407466501,-0.212003702812,9.65886919929
5897245,-0.0111658037289,4.70572692376e-05,5.25464990146e-07,0.999937659363,0.0278292941555,-0.211637935707,-0.0116468800813,-0.000906503636896,-0.215069422615,9.62891721781
5897325,-0.0106898415267,-0.000777838687758,-8.31544994952e-06,0.999942559443,0.0303196584601,-0.238939247589,-0.0129477889093,0.0150184086089,-0.206374367192,9.65116861682
5897405,-0.00927607202073,-0.00238492429053,-2.21237442545e-05,0.999954132015,0.0330909472272,-0.270219186869,-0.0115998838987,0.0461211708977,-0.179370098831,9.66715307805
5897485,-0.00804459168251,-0.00345720767995,-2.78128903537e-05,0.999961665008,0.0339023403646,-0.295372501359,-0.00908838064654,0.0669376097652,-0.155745512668,9.67913795645
5897565,-0.00701600214006,-0.00615372012589,-4.31763938251e-05,0.999956451841,0.0331121060626,-0.323235191897,-0.00758147869523,0.118931800478,-0.135585256819,9.66166860639
5897645,-0.0063097089415,-0.00903490099781,-5.70110575737e-05,0.9999392756,0.0326379654814,-0.347615227326,-0.00710302758591,0.174788592006,-0.122052582314,9.67081944997
5897725,-0.00619564235277,-0.0112102593064,-6.94604554443e-05,0.999917966274,0.0310764109483,-0.375439640489,-0.00426181655155,0.217879473563,-0.120397322094,9.71509602301
5897805,-0.00525741801149,-0.0146678179459,-7.71242133692e-05,0.999878596993,0.0288624080441,-0.404479300169,-0.00255708993093,0.28443543072,-0.101926493842,9.69210199247
5897885,-0.00445858050656,-0.0169642495747,-7.56481107006e-05,0.999846152952,0.0292367665474,-0.429565517083,-0.00153425395856,0.328439147836,-0.0862950137369,9.67567195232
5897965,-0.00472379983379,-0.0194442183359,-9.18689893728e-05,0.99979977978,0.0324412120796,-0.457813639137,-0.000920552375134,0.376868033379,-0.0915207558007,9.68496754151
5898045,-0.00476717363694,-0.0232607855628,-0.000110919476451,0.999718059058,0.0330868092145,-0.481573553353,-0.00268078173239,0.449260414754,-0.0920225792129,9.64864636597
5898125,-0.0054100809418,-0.0251519514728,-0.000136119149958,0.999668991133,0.0330484774341,-0.50391761305,-0.00458829946967,0.484076717603,-0.104055261395,9.61320671118
5898205,-0.00480469193906,-0.0288227846943,-0.000138543762206,0.999572980239,0.0343025485501,-0.522006639544,-0.00658419023496,0.555962994673,-0.0926000977549,9.63192608604
5898285,-0.00428181905392,-0.0310421026487,-0.000132981974373,0.999508897511,0.032500850851,-0.537968336179,-0.00905879487852,0.601249542409,-0.0828539575787,9.66997276954
5898365,-0.00261109652979,-0.0338129467764,-8.83396841517e-05,0.999424764052,0.0224803409408,-0.551376564712,-0.00713803717296,0.653800008649,-0.0504306350453,9.65114167076
5898446,-0.00214134464351,-0.0356660738384,-7.64221543031e-05,0.999361466127,0.0134882045645,-0.557718741587,-0.00130299187354,0.692273473207,-0.0415111288299,9.6862905237
5898525,-0.00301015131806,-0.036753649187,-0.000110709348196,0.999319816677,0.0106470631075,-0.56407818808,0.0132659769041,0.705541325135,-0.0577072400421,9.57857178614
5898605,-0.000336445608584,-0.0358665400804,-1.20749097237e-05,0.999356531955,0.00936806829472,-0.578536107513,0.0232844283551,0.680222633216,-0.00637276443541,9.46438056924
5898685,0.00086962325966,-0.0371313482654,3.23125793155e-05,0.999310014804,0.00562084097683,-0.585508098926,0.025889978734,0.696395459812,0.0162876352841,9.35803745287
5898765,0.00283943088209,-0.0432948911854,0.000123048726788,0.999058294039,-0.00258715627437,-0.588839913652,0.0155339872404,0.807613306161,0.0528682110533,9.30045650737
5898845,0.00458790628942,-0.0482055629526,0.000221422361612,0.998826874783,-0.0109174751168,-0.597224353409,0.000380901053538,0.906426316216,0.0860693043175,9.36837977112
5898925,0.00369892076614,-0.056757761395,0.000210282888236,0.998381104733,-0.0201725670369,-0.611620198615,-0.0231844127483,1.07872044061,0.0700769353737,9.45653892224
5899005,0.00243228061602,-0.0677961471796,0.000165280024125,0.99769621585,-0.0231714818201,-0.622386156046,-0.0432832618899,1.27786498165,0.0456374637145,9.35907854866
5899085,0.00171681276133,-0.0754350755343,0.000129878153191,0.997149229085,-0.0207139300755,-0.630974180812,-0.0544911912519,1.42153314304,0.032170881549,9.3415431729
5899165,0.00112524140185,-0.0824745497955,9.31210851953e-05,0.996592531477,-0.0175366387828,-0.640809586348,-0.0535535277628,1.56567372005,0.0212178902575,9.3947077116
5899245,0.00103681358336,-0.0874626713631,9.10313858907e-05,0.996167253953,-0.0177587143145,-0.645433759485,-0.0461798886859,1.67226936021,0.019673918969,9.44983019092
5899325,-9.52751580127e-05,-0.0916570292849,-8.76955223363e-06,0.995790630518,-0.0204461000024,-0.638843082015,-0.0277079332115,1.78746265982,-0.00184259808151,9.62751345879
5899405,-0.000296565454419,-0.0971867989897,-2.89593374132e-05,0.995266113817,-0.0267411220911,-0.625523494181,-0.0068338885133,1.94971308418,-0.00589396216922,9.88807058626
5899486,-0.00102422030823,-0.100945123319,-0.000103920929279,0.994891462548,-0.0322208955902,-0.610295010436,0.00909605879734,2.06837173356,-0.0207746292547,10.0877399128
5899566,-0.00235456091576,-0.104607058365,-0.000247663160431,0.994510813438,-0.0384885901199,-0.585407387914,0.0241879979827,2.18362023374,-0.0486172226212,10.2650023486
5899651,-0.00359462565979,-0.108583520467,-0.00039264124942,0.994080753049,-0.0435262770221,-0.559832562865,0.0340945416169,2.2819785941,-0.0746601651157,10.320842155
5899725,-0.00533491444845,-0.11395057604,-0.000611911187519,0.993471907239,-0.0439947487947,-0.515540743656,0.0370586373672,2.38887764352,-0.110397224558,10.2760556446
5899805,-0.00637971422053,-0.119132719368,-0.000765500253542,0.992857546898,-0.041296001428,-0.463424248443,0.0328774339568,2.47911387127,-0.130881779559,10.180948991
5899885,-0.0079833762487,-0.124133199882,-0.000998759459403,0.992232944862,-0.0401024430694,-0.421512099778,0.0278145715419,2.56725327149,-0.162565546007,10.0985064612
5899965,-0.00818394355709,-0.126481583551,-0.00104353461626,0.9919346466,-0.0423661384845,-0.37891151806,0.0213713336012,2.61870039063,-0.166731755583,10.1002768589
5900045,-0.00896770559243,-0.130397226254,-0.00117948322541,0.991420572946,-0.0437243557336,-0.347391508168,0.0162283206524,2.69817095581,-0.182399590459,10.0781153414
5900125,-0.00958487441963,-0.132318993548,-0.00127957233578,0.991160015751,-0.0462420463289,-0.315708800389,0.0114397526373,2.75902140405,-0.196349274539,10.1474183882
5900205,-0.0107875072487,-0.134815604607,-0.00146781219354,0.990810894151,-0.0498811109933,-0.286908304308,0.00856661182823,2.82545919375,-0.22195733694,10.1880425356
5900286,-0.0112810376774,-0.136402407205,-0.00155338102087,0.990588061964,-0.0512131696691,-0.24068108248,0.00513996709694,2.84161927113,-0.230618409732,10.12000084
5900365,-0.0127182228276,-0.138738110038,-0.00178188298347,0.990245832369,-0.0383903229078,-0.181017994774,-0.00585551103254,2.84700575457,-0.255926347353,9.95755037825
5900445,-0.0149053069852,-0.141836681018,-0.00213595828609,0.989775542951,-0.0230341937447,-0.13074668006,-0.0158583184019,2.86364517394,-0.294813706361,9.7820291271
5900525,-0.0163964017211,-0.143806053612,-0.00238300155384,0.98946717897,-0.00956361563218,-0.0767452477904,-0.0248398332538,2.88009317004,-0.32149800409,9.69371520819
5900605,-0.0174957153789,-0.143891750845,-0.0025443691296,0.989435490655,-0.00233264888761,-0.0366819673221,-0.0298030521034,2.88972254753,-0.34397292721,9.71901725114
5900685,-0.0174577023072,-0.145663827729,-0.00257077990084,0.989176763279,-0.00139958933257,-0.00115036738161,-0.0315039132289,2.9400323249,-0.344768612283,9.76005585483
5900765,-0.0184576303983,-0.146060953397,-0.00272564967434,0.989099633306,-0.00083975359954,0.0423044757787,-0.0316730497812,2.91658807414,-0.360568913952,9.65323734591
5900846,-0.0202141238267,-0.146736341628,-0.00299924465675,0.988964529078,0.00247597827051,0.0837022238875,-0.0309231515896,2.88695921289,-0.388963288068,9.50654628328
5900925,-0.0218084937741,-0.14885905624,-0.0032837860602,0.98861245578,0.00787093788424,0.134082276441,-0.0274933822445,2.90078535806,-0.415337299013,9.40488469624
5901005,-0.0222892452612,-0.149165233231,-0.00336327205664,0.988555315165,0.0123849838369,0.171972729079,-0.024158450453,2.90357438134,-0.423979100599,9.39272945788
5901085,-0.0226433491145,-0.148374281393,-0.00339820532111,0.988666173975,0.014667721347,0.207052012444,-0.0196033510093,2.91243040029,-0.434431425203,9.47474003679
5901165,-0.0220549410984,-0.145092767739,-0.00323505807764,0.989166923589,0.0156116737916,0.240018904184,-0.0117620106056,2.83274985272,-0.421309786518,9.4389522252
5901245,-0.0197919635794,-0.142742981539,-0.00285497622706,0.98955776411,0.0183064955656,0.268738530519,-0.00705720636337,2.74878907911,-0.373214215417,9.32219031217
5901325,-0.0177577308001,-0.141969024303,-0.00254726279906,0.989708528097,0.0267344296135,0.307254809393,-0.00253156357217,2.69530015279,-0.330231082961,9.19563000517
5901405,-0.0153769450689,-0.141469494779,-0.00219774001246,0.989820742128,0.0330682602266,0.338452687885,0.00146089228693,2.68116330945,-0.285527010372,9.1836190053
5901485,-0.0143928452311,-0.138600501529,-0.00201451373141,0.990241732466,0.0313345877954,0.367387976455,0.00641050617117,2.66047077498,-0.270914995286,9.31383958067
5901565,-0.0124116005841,-0.133472389393,-0.00167169571523,0.99097339968,0.0260374837221,0.397945541503,0.00852889437878,2.57168022133,-0.234853887308,9.37066353112
5901645,-0.0115893480432,-0.129452845563,-0.00151311025683,0.991516695918,0.0249876715854,0.425219571822,0.0102256173648,2.48225344408,-0.218484466174,9.34155097756
5901725,-0.00935835600366,-0.126649374874,-0.00119490546807,0.991902681324,0.0298917551024,0.454780381919,0.0133721014637,2.42213303324,-0.176101670915,9.32863242858
5901805,-0.00765966225066,-0.124940984166,-0.000964593095265,0.99213413892,0.0345369654585,0.474645318284,0.0148343018616,2.39348281189,-0.144447069444,9.35128766027
5901885,-0.00783464081222,-0.119954613013,-0.000946666522071,0.992748010848,0.0411553022253,0.491672560841,0.0110290314243,2.33559125085,-0.150354005826,9.52241926853
5901965,-0.00721979108758,-0.111380456414,-0.00080920008838,0.993751283642,0.054917175699,0.518490818772,0.00193482817849,2.17204826492,-0.139054117363,9.56691913314
5902045,-0.007589864451,-0.104879231926,-0.000800457144413,0.994455680227,0.0687082705822,0.544372644945,-0.00522445401483,2.03537582663,-0.145681713582,9.54118603555
5902125,-0.00749075512236,-0.0972746893004,-0.000732153900681,0.995229112999,0.0803884480038,0.575226582861,-0.0142026140069,1.91171325476,-0.145827548657,9.68496058739
5902205,-0.00555142869992,-0.0921117182998,-0.000513542887458,0.995733071292,0.0852681041495,0.597995846225,-0.0246977907397,1.84469831663,-0.110241444966,9.88471047719
5902285,-0.00405182720305,-0.0841986891316,-0.000342377165979,0.996440688763,0.0839389972223,0.621873965718,-0.0365288675784,1.70489056468,-0.0814677576044,10.0158131589
5902365,-0.00352328957915,-0.075509981881,-0.000266806924078,0.997138785667,0.0780332523284,0.651951369689,-0.0414990633743,1.51278799848,-0.070189049338,9.93095079449
5902445,-0.00137926149728,-0.06944596127,-9.6016042621e-05,0.997584756741,0.0702329047774,0.671700572317,-0.0423527305445,1.3795699463,-0.0272693793098,9.86064034242
5902525,0.000749949954753,-0.0638719274544,4.79987711951e-05,0.997957820829,0.0515049242186,0.674610602603,-0.0373309600476,1.28287970338,0.0150024141621,9.9810203639
5902605,0.00204831466884,-0.0609754275396,0.000125129960025,0.998137157903,0.032605714777,0.672525410221,-0.0304866871964,1.22749917945,0.0410837507434,10.0091950662
5902685,0.00277063065599,-0.0583674551792,0.000161991453978,0.998291308958,0.0170092884974,0.67638257553,-0.0182920123178,1.1435137899,0.0540989308659,9.74549945307
5902767,0.00331044412977,-0.0501088256661,0.000166092032157,0.998738263492,0.0102055730985,0.685507915699,0.000944114330245,0.961202044689,0.0633445599356,9.5547209426
5902845,0.00381479401942,-0.0433467751624,0.000165515796883,0.999052789914,0.00612334385908,0.686300529124,0.0129114803805,0.827872980964,0.0727226600336,9.52213553309
5902925,0.00516628510821,-0.0389686080374,0.00020147867041,0.999227059528,0.000694175885214,0.668045734474,0.0132808590273,0.743805399907,0.0984608140377,9.52125906033
5903005,0.00596949720076,-0.0357139997095,0.000213334526103,0.999344199871,0.000416505531128,0.654538717316,0.0109483458466,0.672295876663,0.112227765278,9.39336164836
5903085,0.00610402861041,-0.0314779857665,0.000192241378552,0.999485787938,0.00365542381037,0.649414337451,0.00656900750798,0.583660911007,0.113065910876,9.25628931934
5903165,0.00572080154703,-0.026389665759,0.000151025111841,0.999635351097,0.00219325428622,0.626332276644,-0.00542377684738,0.495524587376,0.107343873918,9.37803190337
5903245,0.0043499790901,-0.0229336932687,9.97882765275e-05,0.999727519596,-0.00208956791996,0.604394928991,-0.0177277281981,0.430671784896,0.081644576304,9.38164560564
5903325,0.0040411098144,-0.020731533931,8.37970996929e-05,0.99977690807,-0.00295650099783,0.59421235083,-0.0268128592544,0.382901557266,0.0746047035461,9.22843013927
5903405,0.00290364460468,-0.0188905935815,5.48615912066e-05,0.999817338974,-0.0017739005987,0.58725142381,-0.029284107458,0.345859714877,0.0531425279382,9.14919012824
5903485,0.00266220463912,-0.0157221739408,4.18609668569e-05,0.999872853997,-0.00787538134261,0.560938984403,-0.026935645827,0.29442534919,0.0498420292141,9.35974106058
5903564,0.00278576455576,-0.0127417510612,3.54985380114e-05,0.9999149394,-0.0221785213255,0.533232199037,-0.0229724284796,0.238665032512,0.0521712929679,9.36300965466
5903646,0.00218936328699,-0.0103057853057,2.25643603828e-05,0.999944496944,-0.033314545684,0.518736578125,-0.015911907395,0.191322472876,0.0406401622554,9.28069491267
5903725,0.00117671336091,-0.00580947148243,6.83620280812e-06,0.999982432516,-0.0455301310981,0.501099714287,-0.00145903326925,0.108568559409,0.0219898956931,9.34359412534
5903805,0.000253722442966,-0.00294097662947,7.46195026209e-07,0.999995643131,-0.0579677630841,0.478172584202,0.00891545145208,0.055803749171,0.00481423160529,9.48715736632
5903884,-0.00180530683998,0.000241903153892,4.36710142761e-07,0.999998341174,-0.0709643130748,0.451645604307,0.0151401422849,-0.00458555689387,-0.0342215867693,9.47800608483
5903965,-0.00340739680009,0.00195322929475,6.65547858104e-06,0.999992287219,-0.0728025822087,0.436580796493,0.0231318573992,-0.0367489977105,-0.0641074222764,9.40691419045
5904045,-0.0046483522235,0.00411984815164,1.91508747468e-05,0.999980709467,-0.0692229530129,0.422433631067,0.0283525765292,-0.0775948771419,-0.087545587399,9.41645265001
5904125,-0.00393545679784,0.00582611780643,2.29290016465e-05,0.999975283697,-0.0615412046965,0.399897559783,0.0259510372082,-0.111439791275,-0.0752722682109,9.56295478337
5904205,-0.004519106029,0.00828772583746,3.74547806359e-05,0.999955443947,-0.0552293954607,0.385098846828,0.0206789030625,-0.158801218515,-0.0865830496472,9.57903001357
5904286,-0.00498686671863,0.0107864654509,5.37944641183e-05,0.999929387722,-0.0459083391203,0.378773759424,0.0124073418375,-0.203019805816,-0.0938483588411,9.40863118686
5904365,-0.00665900775634,0.0127245841347,8.47418445214e-05,0.999896862378,-0.0364844947629,0.363485075322,-0.00192077624967,-0.240324865667,-0.125740863449,9.43998834346
5904445,-0.00750160321193,0.0141265841307,0.000105985587732,0.999872068985,-0.0316815682714,0.345798063632,-0.0147745477166,-0.271087607389,-0.14391868555,9.5907231489
5904525,-0.00793696033935,0.0141100510789,0.000112005595174,0.999868940699,-0.0326310229296,0.323266534897,-0.0284464714572,-0.270631059306,-0.152191756984,9.58563538592
5904605,-0.00962668363522,0.0136338209422,0.000131266765803,0.999860704627,-0.0349034559704,0.307619167349,-0.0353725555172,-0.257907281824,-0.18205529711,9.45353525865
5904685,-0.00904360359511,0.0135293214533,0.000122370025708,0.999867569091,-0.0388210561636,0.28971694559,-0.0327171649698,-0.251948956497,-0.168369959272,9.30675869547
5904769,-0.00993121291065,0.0138828865637,0.000137893993694,0.999854298113,-0.0475569672015,0.264927840507,-0.024312889658,-0.261781490597,-0.187213235329,9.42315757935
5904845,-0.01143964804,0.0132073019814,0.000151109956524,0.999847327742,-0.055352654193,0.247074547027,-0.0145877337948,-0.249724498606,-0.216236293248,9.44846475879
5904924,-0.0125887347991,0.0118862022672,0.000149654681566,0.999850098542,-0.059178686265,0.237213951062,-0.00151590923201,-0.220224227972,-0.233171287668,9.25822656401
5905005,-0.0133442532945,0.0122260753722,0.000163174574517,0.999836200264,-0.0584944750779,0.229169143175,0.0110097761817,-0.224550720865,-0.245008225481,9.17712363006
5905084,-0.0127213964076,0.013655602444,0.000173748596268,0.999825815033,-0.0542527378126,0.213700006907,0.0202279476758,-0.256834717187,-0.239181699205,9.39757013629
5905164,-0.0126161832101,0.013773507481,0.000173799416456,0.999825530884,-0.0478764849002,0.198033174224,0.0215019499577,-0.261839905019,-0.239755926261,9.49871341844
5905246,-0.012963179243,0.0131658624949,0.000170700577605,0.999829278882,-0.0402195225996,0.189484454737,0.0214149712038,-0.248801866596,-0.244888865815,9.44232292655
5905325,-0.0135597663427,0.0118612249712,0.000160861547631,0.99983769593,-0.0262601638671,0.182226772738,0.0166801932755,-0.221586010094,-0.2532358732,9.33450780012
5905405,-0.0130532049362,0.0111567679344,0.000145653055005,0.999852548707,-0.0157560983202,0.173189572862,0.0100081159653,-0.209326639015,-0.244836548334,9.37540301748
5905485,-0.0125248865359,0.00987739659451,0.000123729014107,0.999872766378,-0.00945365899214,0.160530521892,-0.00123186146569,-0.190478848399,-0.241472894577,9.63696611224
5905565,-0.01340787588,0.0079044582148,0.000105994834725,0.999878861248,-0.00269236496505,0.153360781371,-0.0101042982316,-0.152355115436,-0.258368895437,9.63205593688
5905646,-0.0141599713997,0.0063230978167,8.95456525026e-05,0.999879745582,0.00349286175851,0.150336007243,-0.016279140414,-0.120143489184,-0.268985336286,9.49503453869
5905725,-0.0139737523991,0.00739501788377,0.000103349066409,0.999875010826,0.00720399779265,0.14979821295,-0.0216868059694,-0.140560260991,-0.265538973988,9.49829469904
5905806,-0.0133430990661,0.00779912306345,0.000104076903115,0.999880555144,0.0064508489829,0.147772776129,-0.025357095364,-0.149697861917,-0.256049131463,9.59194871884
5905885,-0.0155116005344,0.00636614756222,9.87630223846e-05,0.999859416448,-0.000386391224879,0.14485475379,-0.0262821988164,-0.122140439562,-0.297520998653,9.58661014805
5905965,-0.0161242132069,0.00526997251751,8.49863896168e-05,0.999856104605,-0.00406304528809,0.148637911186,-0.0204519099659,-0.0991416416669,-0.303250505686,9.39977173825
5906045,-0.0173592205666,0.00404656356404,7.02563513313e-05,0.999841126304,-0.00456627748016,0.150482115562,-0.0122711459796,-0.0748078756252,-0.320813999701,9.23619335667
5906125,-0.0153147106674,0.00471811705096,7.22658772892e-05,0.999871588648,-0.0027397664881,0.145628977327,-0.00523423728043,-0.0884591955899,-0.287059365397,9.36860794759
5906205,-0.0138658386589,0.00395907576633,5.49016141985e-05,0.999896025206,-0.00164385989286,0.140588644079,0.00026497812344,-0.0755810129594,-0.26465180332,9.54047288623
5906287,-0.0136999157022,0.00242403934528,3.3212349215e-05,0.999903212936,0.00199351449452,0.139267204376,0.00782140798038,-0.0460668682737,-0.260305232383,9.49754554815
5906366,-0.0139596615206,0.00136007127988,1.89880024847e-05,0.99990163401,0.0105612900489,0.14315693123,0.0157607863862,-0.0254853394701,-0.261528012476,9.36452891092
5906445,-0.0133058455688,0.00165416745509,2.20120754818e-05,0.999910104819,0.0174047156273,0.145916457404,0.0200987233683,-0.0308535144731,-0.248135890738,9.32182905431
5906525,-0.0118100747045,0.00294717737216,3.4808963762e-05,0.99992591479,0.0215107709744,0.147572173109,0.0192959650658,-0.0561010747483,-0.22477772707,9.51432091159
5906605,-0.0115721089923,0.00397910687301,4.6050106537e-05,0.999925122637,0.0235487141212,0.149842672716,0.0179629299614,-0.0765168545658,-0.222494417004,9.61138067318
5906685,-0.0130923843761,0.00401847603106,5.2616367437e-05,0.999906214879,0.0243457899478,0.156313253218,0.0163117287759,-0.0765558939895,-0.249376010554,9.5211760272
5906765,-0.0132034373764,0.00482053920485,6.36539759567e-05,0.999901208916,0.0239726553209,0.164026812072,0.0131925577572,-0.0911839477706,-0.249703235727,9.45340629015
5906845,-0.0120233690193,0.00569015291196,6.84208618325e-05,0.999911524124,0.0233230844832,0.168654947384,0.00961829490018,-0.107861645518,-0.227872915557,9.47403601042
5906925,-0.0109935672316,0.00668803535559,7.35314547553e-05,0.9999171997,0.0225076519192,0.173560278879,0.00577097694011,-0.128642171637,-0.211422841131,9.6137853709
5907006,-0.0113868968334,0.00629366451056,7.16713748919e-05,0.999915358033,0.0207413221964,0.179908998268,0.00346258616406,-0.121478033695,-0.219748729093,9.64711733216
5907086,-0.0111711593241,0.00486774262097,5.4382366209e-05,0.999925750905,0.0184044541783,0.188826510638,0.00207755169844,-0.0925192738303,-0.212294413237,9.50000123303
5907165,-0.00986754136916,0.00566860508902,5.59388175053e-05,0.999935245611,0.0208335439206,0.197156848491,0.00124653101906,-0.106747479826,-0.18579516845,9.41292867439
5907245,-0.00775520214224,0.00728321756428,5.64860214192e-05,0.999943402594,0.0244194480733,0.204709191571,0.00245067885729,-0.137311058696,-0.146193025142,9.42437090337
5907325,-0.00646509816197,0.00858933650521,5.55341129859e-05,0.99994220969,0.0291251309337,0.211794737788,0.00317316756022,-0.164268331995,-0.123628839988,9.56028371023
5907405,-0.00708696685744,0.00788293722859,5.58692539503e-05,0.999943813962,0.0319485406499,0.215194685396,0.00190390053613,-0.15123343572,-0.135947706825,9.59035605866
5907485,-0.00659291117729,0.00734169743472,4.84055157416e-05,0.999951314144,0.034919656664,0.221065864513,0.00284510056753,-0.139102934967,-0.124903674144,9.47169055292
5907565,-0.00672606082817,0.00777043727334,5.2267194126e-05,0.999947187445,0.0396821567028,0.22927116266,0.00426120070929,-0.145232163812,-0.125699279681,9.3432698298
5907645,-0.00660789383748,0.0106294162965,7.02435566134e-05,0.999921670089,0.0484993175865,0.241431072593,0.00468517073288,-0.197990835153,-0.123064180846,9.31074954681
5907725,-0.00736743047023,0.0110564241645,8.14646270811e-05,0.999911731013,0.0525125439323,0.248301328491,0.00451386268558,-0.208577063347,-0.138960793664,9.4293828128
5907805,-0.00775629819393,0.0115671888255,8.97272683302e-05,0.999903011262,0.0519406493095,0.25242348203,0.00611383810304,-0.219717203585,-0.147301660524,9.49409842791
5907885,-0.00870459902542,0.0110359627474,9.60731217119e-05,0.999901209246,0.0490433721671,0.258302294645,0.0113307239681,-0.208923615608,-0.164756029274,9.46205942784
5907966,-0.00890981292902,0.0119034155028,0.000106068931242,0.999889450231,0.0473050058817,0.264383722583,0.0161636157331,-0.223277017265,-0.167088364879,9.37484070065
5908045,-0.00856796903607,0.0151307430094,0.000129659341386,0.999848805426,0.0479647463563,0.271863789898,0.0211918010993,-0.282406713289,-0.159868640265,9.32729786766
5908125,-0.00758156164195,0.0182519538359,0.000138405348585,0.999804664396,0.0436779999649,0.277203210411,0.0254857825034,-0.345178429829,-0.14332637703,9.44984629262
5908205,-0.00679505580871,0.0189200829032,0.000128589007051,0.99979790015,0.0359976713926,0.281258242841,0.0280621713459,-0.362251325475,-0.130049136765,9.56694981781
5908285,-0.00599536683355,0.0195657568538,0.000117328459519,0.999790589558,0.0215986028356,0.285819712607,0.028330934467,-0.37512868469,-0.114900187625,9.57999051324
5908365,-0.00545999256595,0.0214443774021,0.000117114819485,0.99975512674,0.0129591617013,0.290259354712,0.0280665022782,-0.40919131848,-0.10413487698,9.53346655282
5908445,-0.0039231570287,0.0257070443145,0.000100886889913,0.999661816083,0.0043699765291,0.299308490897,0.0262050827191,-0.486610898266,-0.0742125143225,9.45479510137
5908525,-0.00286615658408,0.029752310529,8.53128994455e-05,0.999553189123,-0.00333767494301,0.313677463899,0.0199799502461,-0.559638284565,-0.0538648950681,9.39226933987
5908605,-0.00239444876351,0.0314237081572,7.527985197e-05,0.999503282393,-0.00966502607212,0.324427298007,0.0136907303935,-0.591244287878,-0.0450082058397,9.39353994987
5908685,-0.00191244900893,0.0315635439792,6.03938704248e-05,0.999499915749,-0.0151641969954,0.328748748165,0.0082144382361,-0.600391663059,-0.0363423099784,9.49653472676
5908765,-0.00157281686535,0.0331570245713,5.21786822993e-05,0.999448915776,-0.017186629365,0.329638858014,0.00492866294166,-0.631976886263,-0.0299456716316,9.51427828234
5908845,-0.000444907489147,0.0368526566371,1.64071697841e-05,0.999320610959,-0.0137174981107,0.328895853738,0.002957197765,-0.695939011396,-0.00839059633833,9.42293142497
5908925,0.000564894172209,0.0408497645879,-2.30950751051e-05,0.999165140052,-0.00610204855912,0.331004191542,0.001774318659,-0.762567866066,0.010527952988,9.31042305054
5909005,0.000842687526432,0.0435206723299,-3.67091216986e-05,0.999052170615,0.00144705160207,0.33397195447,0.0010645911954,-0.809967204015,0.0156541582674,9.27907047095
5909084,-0.000574953245312,0.045840273537,2.63837534838e-05,0.998948616324,0.00980772225195,0.336178302289,0.000638754717239,-0.856363319235,-0.0107187989849,9.31125541856
5909165,-0.00211767181626,0.0473031919225,0.000100285123404,0.998878327647,0.0156755047648,0.336225040795,0.000383252830343,-0.888989391688,-0.0397106824671,9.36504289103
5909245,-0.00177956878051,0.0503903880277,8.97873701928e-05,0.998728007952,0.018770484211,0.331144803162,0.000229951698206,-0.955012547366,-0.0336426362869,9.43993216406
5909325,-0.00120753499961,0.0530183175214,6.4111691501e-05,0.998592807783,0.0172219513871,0.325116830151,0.000137971018924,-1.00468208775,-0.0228192035983,9.43482691318
5909405,-0.000641468511805,0.0547207030838,3.51542869098e-05,0.998501493207,0.0133130012625,0.321074356283,-0.00247135775742,-1.02801946749,-0.0120155809969,9.35107916671
5909485,-0.00173317662698,0.0564049501419,9.79157735049e-05,0.998406464377,0.0045822802658,0.319925942147,-0.00446264508469,-1.04824681965,-0.0321090458638,9.24767924197
5909565,-0.00253115667205,0.0579232818851,0.000146859946617,0.998317817678,-0.00363598276245,0.319236893665,-0.00480603735812,-1.06900235693,-0.046559326444,9.18109030397
5909646,-0.0039668604572,0.0594988142429,0.000236444254004,0.998220466238,-0.012823841194,0.314992254023,-0.00501207272218,-1.10156697324,-0.0731860072434,9.20745632716
5909725,-0.00354011776277,0.061273562258,0.000217325347814,0.99811470829,-0.0191879363759,0.303505978947,-0.00471000387916,-1.14552659996,-0.0659382596195,9.29462315054
5909805,-0.00316455250483,0.0620542624889,0.000196754151797,0.998067740888,-0.0221550133621,0.291505933164,-0.00282600232749,-1.16519861134,-0.059195409385,9.33399455561
5909885,-0.00200501702033,0.0639522164874,0.000128488563401,0.997950939377,-0.0218068092465,0.274940724342,-0.0016956013965,-1.20645049859,-0.0376720271251,9.37437681027
5909965,-0.00117376533868,0.0652225304363,7.67193538677e-05,0.997870050614,-0.0215978867771,0.26244745868,-0.0010173608379,-1.23455351327,-0.022124375943,9.40363398655
5910045,-0.00169036456758,0.0672380484721,0.000113914772073,0.997735523337,-0.0257294339101,0.255802879406,-0.00401593699444,-1.26697763286,-0.031709978349,9.35750252816
5910125,-0.00149632772819,0.0699015237043,0.000104852185678,0.997552769027,-0.0324652628046,0.256924412579,-0.00836922305713,-1.30893760023,-0.027884533152,9.29391062823
5910205,-0.00209446359871,0.0724087357918,0.000152056940543,0.997372831534,-0.0369324502027,0.25972578279,-0.0118325748177,-1.35518255525,-0.0389967953306,9.28400706785
5910286,-0.00253295840395,0.0750230652112,0.000190567978969,0.997178563494,-0.0387613825186,0.262257985039,-0.0147619659969,-1.40998400703,-0.0473400938,9.31732983886
5910365,-0.00306755504602,0.0769855486633,0.000236861488128,0.997027461658,-0.0385816717238,0.262500236205,-0.0156682205815,-1.44837154191,-0.0573738963679,9.32271887133
5910445,-0.00332356550943,0.0786415954301,0.000262183951562,0.996897379192,-0.0337912545708,0.257111616105,-0.014083523025,-1.48074144932,-0.0621970770785,9.32667055131
5910526,-0.00543591562525,0.0799815244677,0.000436176684407,0.996781428556,-0.0266601036644,0.245790332877,-0.0110042541838,-1.51333150289,-0.102201111237,9.36878530686
5910605,-0.00697903639736,0.0796347001711,0.000557557920145,0.99679952684,-0.0219557230591,0.234740662326,-0.00830531275611,-1.51516844275,-0.131949615717,9.42134805912
5910685,-0.00755371182785,0.080568832639,0.000610596355098,0.996720237487,-0.0199844748189,0.220874128951,-0.00498318765367,-1.52848103513,-0.142376693258,9.39159414797
5910769,-0.00726668676674,0.0812943764307,0.000592718393347,0.996663467931,-0.0200787960591,0.210851448679,-0.0029899125922,-1.53359554857,-0.13618309115,9.33734993605
5910845,-0.00756424591697,0.0825680470089,0.000626723118007,0.996556524747,-0.0235409092949,0.203560770332,-0.00179394755532,-1.55318424809,-0.141325476028,9.30767645089
5910928,-0.00819586884902,0.0844955651702,0.000695023671467,0.996389905681,-0.0290236977281,0.196632222955,-0.00107636853319,-1.58648528274,-0.152790612765,9.2855627968
5911005,-0.00915195051099,0.0853102225128,0.000783644941439,0.996312096503,-0.0327390608495,0.190772334283,-0.000645821119915,-1.59593141623,-0.169964761946,9.24931026841
5911085,-0.0103465116529,0.0867349709412,0.000900848073069,0.996177284917,-0.0353939687838,0.182148120342,-0.000387492671949,-1.61165474329,-0.19080373876,9.1830266005
5911165,-0.0109156773461,0.0882365469967,0.000966991671381,0.996039268648,-0.0365612234829,0.173993761548,-0.00236094591048,-1.63880583181,-0.201152343353,9.17485986167
5911245,-0.0114537221779,0.0891991930289,0.00102581999277,0.995947420251,-0.0334303657492,0.161438725164,-0.0035450178536,-1.65796952692,-0.211192228766,9.17929720484
5911325,-0.012655965279,0.0898383463451,0.00114170017341,0.995875290681,-0.0277206405559,0.147946042474,-0.00212701071216,-1.67449556747,-0.233975571635,9.20254974502
5911405,-0.0127759880639,0.0903073342872,0.00115859523816,0.995831319632,-0.022592045194,0.138573362676,-0.0012762064273,-1.68991785562,-0.237111090051,9.23780966391
5911485,-0.0129449291492,0.0906830761507,0.00117884306831,0.995794968273,-0.0135552271164,0.130821304489,-0.000765723856377,-1.70850861498,-0.241865443093,9.29966704346
5911565,-0.0130702716258,0.0915134983834,0.00120125084021,0.995717331681,-0.00600468596252,0.12404161927,0.00124332593202,-1.72971871757,-0.244957475084,9.32744408472
