timestamp,orien_x,orien_y,orien_z,orien_w,ang_v_x,ang_v_y,ang_v_z,lin_acc_x,lin_acc_y,lin_acc_z
6086954,-0.00325046551562,0.0836631533318,0.000272902422382,0.996488753962,-0.049801152582,0.0514449046175,-0.0192930310719,-1.58359663537,-0.0611000010336,9.36421437284
6087034,-0.00452854542801,0.0838278171914,0.000380962918808,0.99646989127,-0.0477596741306,0.0444890247373,-0.0158327192578,-1.59826837063,-0.0857411346534,9.43177360784
6087115,-0.00529850984307,0.0856416336885,0.000455452834249,0.996311813106,-0.0392980560149,0.0347815260102,-0.00949963155467,-1.65232182316,-0.101483495489,9.53958621548
6087196,-0.00717830504885,0.0878872668919,0.000633348910017,0.996104361563,-0.0308155646538,0.0293827168353,-0.00357132862549,-1.7113295331,-0.138701651249,9.62151203202
6087278,-0.00953097792473,0.0895415990372,0.00085690049573,0.995937110576,-0.0223205493454,0.031251712068,-0.0021427971753,-1.7359602516,-0.183298620144,9.57442061521
6087361,-0.0118448801688,0.0912454026677,0.00108539576194,0.995757398778,-0.0185006103448,0.0345015595149,-0.00128567830518,-1.7619914305,-0.226816213102,9.5308428745
6087443,-0.0138017297622,0.0922713819836,0.00127908479112,0.995637418072,-0.0179114071903,0.0377285381674,-0.000771406983106,-1.78311680166,-0.264418936845,9.53390549032
6087529,-0.0165544218353,0.0925655113477,0.00153919055065,0.99556778178,-0.0188349554819,0.0400904154204,-0.00471974480448,-1.78765173871,-0.316908091844,9.52496915235
6087604,-0.01800852531,0.0911286254919,0.00164822084259,0.99567492185,-0.0164092540267,0.0334194306044,-0.00581167731292,-1.74153098707,-0.341218979862,9.42814884615
6087685,-0.0189497909431,0.0897406354243,0.00170776722802,0.995783413855,-0.0136767629692,0.0234571788543,-0.00348700638775,-1.70140868746,-0.356284353005,9.35617029279
6087764,-0.0195844000415,0.0898683264665,0.00176751236682,0.995759514679,-0.0111858882117,0.0085403365136,0.00131331665904,-1.70271384529,-0.367957198717,9.34913560585
6087848,-0.0200038797427,0.0899267836481,0.00180657002472,0.995745828353,-0.00671153292705,-0.00466666950547,0.00717334091736,-1.70206041899,-0.375439746476,9.33892928954
6087924,-0.0199955146566,0.089545438344,0.00179809440398,0.995780377755,-0.00402691975623,-0.0219560544691,0.0132434958411,-1.7059779262,-0.377774493638,9.40127966723
6088004,-0.0195769788595,0.0887161008806,0.00174400815903,0.995863019586,-0.00241615185374,-0.0365865860619,0.0160342086724,-1.70617364903,-0.37342925795,9.49279885136
6088084,-0.0181977392273,0.0892525466393,0.00163097709217,0.995841435731,-0.00144969111224,-0.0500474956936,0.0160058761254,-1.71419194821,-0.34664067977,9.47995445486
6088163,-0.0165022746941,0.0910138100693,0.00150840330752,0.995711748462,0.0042384660702,-0.0581240414727,0.0159888765972,-1.73217103684,-0.311413919581,9.39084496051
6088242,-0.0152798511181,0.091797336851,0.00140876441707,0.995659475162,0.00977981068697,-0.0625442788786,0.0147016066958,-1.73721240604,-0.286686560977,9.33666100341
6088322,-0.0149263095055,0.0903953998053,0.00135496984068,0.995793171816,0.0160844478873,-0.0647707312607,0.0118007944477,-1.72299897561,-0.282145212953,9.40781956103
6088402,-0.0132342174639,0.0880963009779,0.00117054042666,0.996023356693,0.0219956805148,-0.0678093629359,0.0104859971603,-1.69962686705,-0.253323606044,9.52952335039
6088482,-0.0126249448208,0.0865375007792,0.00109673386487,0.99616799231,0.0297993207059,-0.0755922028014,0.0122512591567,-1.67482969445,-0.24249498638,9.56399897727
6088563,-0.0106532804431,0.0856530478381,0.000915904418176,0.996267646835,0.0357585750049,-0.0857958775197,0.0137361064159,-1.64582560109,-0.203197251838,9.49873251381
6088642,-0.00908583256952,0.0852984118339,0.000777874553794,0.996313717408,0.0393341275844,-0.0936208425966,0.0146270147715,-1.62842314508,-0.172196585966,9.43898250145
6088723,-0.00758796696391,0.0850325270461,0.000647588304534,0.996349071727,0.0402023889476,-0.0991672017656,0.0143101796619,-1.61750283114,-0.143301119304,9.40624495619
6088802,-0.00735104896209,0.08368518939,0.000617356318286,0.996464936677,0.0385948954583,-0.103772087451,0.0128430084118,-1.58676920601,-0.13841368794,9.37941982406
6088883,-0.00671556994124,0.0819262213164,0.000552049615894,0.996615618291,0.0346505689344,-0.109940539355,0.0115370156002,-1.55803396379,-0.126862103145,9.41168761831
6088962,-0.00566507874642,0.0819724835723,0.00046595626,0.996618383186,0.0314325928972,-0.114067300558,0.0116048000362,-1.57263570054,-0.107960143967,9.49473405902
6089043,-0.00468864862452,0.0814186931095,0.000383019525553,0.996668884978,0.0299274973363,-0.116117667219,0.0107940905749,-1.56751037296,-0.0896757836458,9.52971787316
6089122,-0.00332548066184,0.0788554966018,0.000263053029372,0.996880475602,0.0320042704301,-0.117773577276,0.00945628477517,-1.51224158022,-0.0633822768281,9.49875398561
6089205,-0.00209807832625,0.0774903119933,0.000163071444962,0.996990884122,0.0345274044707,-0.118767123311,0.00950498141826,-1.48410812806,-0.039944727425,9.48951303956
6089282,-0.00210934997978,0.0755284817241,0.000159772727559,0.997141400988,0.0356155948336,-0.117234800625,0.00868281928119,-1.44065241834,-0.040007987578,9.45523805201
6089362,-0.00219326757348,0.0727892745467,0.000160071358141,0.997344918003,0.034140058744,-0.116315407013,0.00520969156871,-1.38393321126,-0.041482464666,9.43060291665
6089442,-0.00185461203544,0.071536580723,0.000133013618078,0.997436243747,0.0328290470288,-0.11704084103,0.00312581494123,-1.3640274768,-0.0351845459383,9.46035398632
6089526,-0.00154885117868,0.0711458538262,0.00011047442378,0.997464714333,0.0303396797538,-0.117050411379,0.00187548896474,-1.36142142261,-0.0294904333735,9.49496403974
6089603,-0.00139829012101,0.070346084429,9.86086205336e-05,0.99752166065,0.0275689892045,-0.115779083404,0.00112529337884,-1.34238011797,-0.0265528061667,9.47024024025
6089683,-0.00144152049963,0.0697881259271,0.000100847001189,0.997560789791,0.0263322649363,-0.114164906496,-0.00102758421854,-1.33406779734,-0.0274238516688,9.48796710314
6089762,-0.000510200886088,0.0700562607523,3.58308058004e-05,0.997542910726,0.0272929906213,-0.111493640105,-0.000616550531126,-1.34536097626,-0.00975054635282,9.53116436344
6089846,-0.000591862607821,0.0693374192596,4.11372394759e-05,0.997593088537,0.0274437359708,-0.109039500148,-0.000369930318675,-1.33681399298,-0.01135699163,9.57025082876
6089923,-0.000118352617419,0.0679046681744,8.05528837276e-06,0.997691807107,0.0262571129961,-0.109695466481,0.00275787223903,-1.30558900492,-0.00226521182373,9.54677635541
6090002,0.000392979622833,0.0672203633221,-2.64761200053e-05,0.99773807566,0.0255451392113,-0.11008904628,0.00591162395804,-1.28852995324,0.00749941904834,9.5192841421
6090083,0.000837021423844,0.0675789175657,-5.66946295841e-05,0.997713579181,0.0255436450019,-0.106068293546,0.00865525511237,-1.29696929519,0.0159918193978,9.53008271305
6090162,0.00129566397579,0.0667972167804,-8.67405495515e-05,0.997765726792,0.022562918046,-0.101527391598,0.00945005368204,-1.29030131222,0.0249179822637,9.59354385512
6090243,0.000813695624944,0.0663473557096,-5.41057885133e-05,0.997796253432,0.0186460315651,-0.0979514703057,0.00992693282384,-1.28318806028,0.0156690498562,9.60624200277
6090322,0.000842085598882,0.0647493491668,-5.46391710331e-05,0.997901202369,0.0150188294922,-0.0898462566702,0.00978737024747,-1.24348592455,0.0161051945622,9.54179542139
6090402,0.00134979350341,0.0640145807923,-8.65841318682e-05,0.997948046747,0.012416818187,-0.0824289881201,0.00927794264018,-1.2239742061,0.0257042678604,9.50121211123
6090482,0.00146995566682,0.0634037423041,-9.33886937254e-05,0.997986871642,0.00745009091222,-0.0771272468671,0.00556676558411,-1.20699993137,0.027872409349,9.46082097401
6090564,0.00163917898124,0.0621589781867,-0.000102087238557,0.998064909764,0.00447005454733,-0.0739462021153,-6.54611412331e-05,-1.18340783724,0.0310886555704,9.46388019061
6090642,0.001293061651,0.0609637703974,-7.89768786085e-05,0.998139138824,0.0026820327284,-0.0724632653257,-0.00472186736082,-1.16590069844,0.0246386974926,9.50881135045
6090722,0.00126240108595,0.0592001053948,-7.48656414818e-05,0.998245334705,0.00160921963704,-0.0737019535592,-0.00964416139989,-1.13504570105,0.0241206049702,9.53600946652
6090802,0.0013335127264,0.0582885863886,-7.78610225957e-05,0.998298881287,0.000965531782224,-0.0752965466222,-0.0130232278848,-1.11772980344,0.0254856906188,9.53892080687
6090883,0.00122339734666,0.0581960573265,-7.13178271242e-05,0.998304421068,0.000579319069334,-0.0745505422142,-0.0159020478987,-1.11835359251,0.0234317000158,9.55958180419
6090962,0.000881160867035,0.0585572925785,-5.16871073872e-05,0.998283659272,0.000347591441601,-0.0706974190777,-0.016777959784,-1.1290229331,0.0169320620017,9.59065317553
6091042,0.000278851781892,0.0584677347118,-1.63317714276e-05,0.99828925967,0.00020855486496,-0.06668278495,-0.0168778168538,-1.12991787363,0.0053708338807,9.61312672099
6091122,0.000117734547762,0.0580252873044,-6.84311087165e-06,0.99831510663,-0.00328038757272,-0.0587400336743,-0.0152349708498,-1.11992035064,0.00226481966436,9.60147173084
6091205,-0.000426845649034,0.0578412629815,2.47306980187e-05,0.998325701106,-0.00707651328118,-0.0501431723558,-0.0133978831245,-1.11727371917,-0.00821791484201,9.6095622072
6091282,-0.000333716524584,0.0580555645544,1.94068347954e-05,0.998313297358,-0.0114826390136,-0.0377483245198,-0.0114442503664,-1.1113761773,-0.0063672699013,9.52319740977
6091362,-0.000831787205703,0.0590209731416,4.91786384403e-05,0.998256395142,-0.0158290746988,-0.0273315853879,-0.00686655021985,-1.12435764364,-0.0157913702416,9.47520925397
6091442,-0.00118346375879,0.0601597001081,7.13260633049e-05,0.998188060843,-0.0197140062944,-0.0198044717245,-0.00411993013191,-1.14292043091,-0.0224035111098,9.44737404115
6091526,-0.0013459512765,0.0605479507095,8.16444598356e-05,0.998164378955,-0.0237477254976,-0.0135854432805,-0.00247195807914,-1.14735433862,-0.0254131149666,9.42253262782
6091603,-0.00131363859383,0.0611986506768,8.05439504123e-05,0.998124738207,-0.0265936470809,-0.0102797162756,-0.00148317484749,-1.16078859072,-0.0248246756206,9.43037269559
6091682,-0.0019108043853,0.0621291017923,0.000118946568916,0.998066285068,-0.0300039602768,-0.00957335025707,-0.000889904908492,-1.18943927626,-0.0364426203138,9.51671901286
6091762,-0.0022611351009,0.0642238651323,0.000145519632959,0.99793294426,-0.0329015283173,-0.00914953064594,-0.000533942945095,-1.23128996468,-0.0431739669637,9.526388854
6091846,-0.00161477481666,0.0659800114429,0.000106775671074,0.997819632595,-0.0333629989571,-0.00804385875634,-0.000320365767057,-1.25951283989,-0.0306927834985,9.48215194399
6091922,-0.00178557196162,0.0667340010182,0.000119424774244,0.997769197048,-0.0315114310338,-0.00652907549965,-0.00189497970608,-1.27548888436,-0.0339779808901,9.49248050355
6092002,-0.00167149806316,0.0676385712892,0.000113317409682,0.997708482938,-0.0308261803412,-0.00391744529979,-0.00411681825388,-1.2958484185,-0.0318789565028,9.51328226942
6092082,-0.00326989947672,0.0682367574746,0.000223649834486,0.997663772354,-0.0304150299257,-0.00235046717987,-0.0050242313211,-1.3044728365,-0.0622230037845,9.49128682503
6092162,-0.00302221012417,0.0698633085116,0.00021165974699,0.997551973368,-0.0276141993076,-0.00141028030792,-0.00556867916143,-1.32880110058,-0.05720567605,9.440021752
6092243,-0.00305978962336,0.0707749272256,0.000217101835869,0.997487594023,-0.0255080108752,-0.000846168184755,-0.00717241805002,-1.35441138667,-0.0582654222316,9.49617222845
6092322,-0.00321400518812,0.0698474367073,0.000225040815314,0.997552482385,-0.0246699878773,-0.000507700910853,-0.0102631116905,-1.35421524753,-0.0620137320987,9.62275753873
6092403,-0.00432080208777,0.0686163639473,0.000297180942265,0.997633718832,-0.02459286414,-0.000304620546512,-0.0116918378133,-1.3347045306,-0.0836557514663,9.65657077568
6092482,-0.00546741778987,0.068432125578,0.000375031824988,0.997640722346,-0.0262493501435,-0.00486536300399,-0.00956924305675,-1.32060389878,-0.105020668897,9.58037239094
6092563,-0.00681525980216,0.0694053026708,0.000474169700765,0.997565151435,-0.0302230721758,-0.00973025878579,-0.00914706632575,-1.3430287211,-0.131247148653,9.60408520825
6092643,-0.00807876069697,0.0696619036875,0.000564170959216,0.997537786007,-0.0330329954566,-0.0135005763778,-0.00931945034861,-1.35241347168,-0.156081002815,9.63459346992
6092723,-0.00887621092476,0.0686843609848,0.000611124327836,0.997598766019,-0.0355703295481,-0.015762766933,-0.00942288076232,-1.32189187695,-0.170023634648,9.55282079753
6092798,-0.00896443811399,0.0676993129998,0.000608306508547,0.997665310528,-0.0383698001873,-0.0162687011432,-0.00905924894909,-1.28801660932,-0.169770087771,9.44533867359
6092875,-0.00899444692997,0.0680281418328,0.000613321312596,0.997642669336,-0.0400494825709,-0.0152951914849,-0.00798968973823,-1.29067578469,-0.169857379811,9.41843836528
6092954,-0.00899490794582,0.0676233313808,0.000609686094451,0.997670188473,-0.0406316019395,-0.01471108569,-0.00649657408878,-1.28867998741,-0.170628015533,9.46095612098
6093034,-0.00892689754809,0.0670896548928,0.000600279014662,0.997706834883,-0.0397038033764,-0.0147863122744,-0.00389794445327,-1.27718744191,-0.169175035638,9.45222969065
6093114,-0.00763836952053,0.0663183239643,0.00050769645887,0.997769150386,-0.0395728142999,-0.0156828283481,-0.000210316364652,-1.25472960382,-0.143882390768,9.3959973371
6093195,-0.00747723916473,0.0657932356488,0.000493033898615,0.997805140273,-0.0390685307926,-0.0179234982381,0.00327933067291,-1.24532504379,-0.140917232312,9.40104399186
6093274,-0.00727540817456,0.0660977500214,0.000481954912224,0.997786512034,-0.0366375103809,-0.0235248007867,0.00750156920275,-1.2521321564,-0.137222775911,9.4083815477
6093355,-0.00837592066054,0.066316636884,0.000556708068221,0.997763317476,-0.0347532080724,-0.0273112723773,0.00918353219773,-1.25070976015,-0.157272177509,9.36585772867
6093437,-0.0103912063912,0.0672911553923,0.000700862971139,0.997679022545,-0.0340483167488,-0.0287317752088,0.00551011931864,-1.27427717933,-0.195877456896,9.40139557958
6093521,-0.0117545611461,0.0680250755801,0.000801517296919,0.99761404208,-0.0314969316473,-0.0334152874608,0.00330607159118,-1.3042193618,-0.224307868181,9.51633157505
6093604,-0.0127412574771,0.0692184241812,0.000884122593409,0.997519768445,-0.0274119602176,-0.0383538451194,0.00198364295471,-1.33990176356,-0.245436257774,9.6051650461
6093684,-0.0131331388414,0.0708342701073,0.000932700203866,0.99740120158,-0.0198526966223,-0.0413169797145,-0.00178964465741,-1.36945149027,-0.252606627711,9.58951212092
6093764,-0.0128994357899,0.0705335568959,0.000912191451134,0.997425581091,-0.0119116179734,-0.0418177902872,-0.00618206753199,-1.35797206604,-0.247092622867,9.55043226523
6093849,-0.0139246569247,0.0710340949776,0.000991727500404,0.997376196707,-0.00459283041524,-0.0425439666922,-0.00839183119528,-1.36425252063,-0.2660502954,9.52530841065
6093924,-0.0156971011787,0.0721305883295,0.00113533946011,0.997271021461,0.00490672285717,-0.0451081228426,-0.00503509871717,-1.37903412102,-0.298493873529,9.47863063599
6094004,-0.0153921077941,0.0737119521664,0.00113781354938,0.997160135839,0.0131605951894,-0.0474979966557,-0.00131829898445,-1.40442307271,-0.291623802145,9.44296252588
6094084,-0.0146107284511,0.0730360261602,0.00107008255495,0.997221700737,0.0219441291419,-0.050208991128,0.00261454110103,-1.39332022546,-0.277206692176,9.45699584439
6094164,-0.0137295860782,0.0719237671491,0.000990141943978,0.997315140667,0.0272142495134,-0.056092488426,0.00369717496793,-1.36894142483,-0.259937300217,9.43812193656
6094244,-0.0134722145137,0.0717365039399,0.000969034800785,0.997332158516,0.0295249416133,-0.0617510371121,0.0039210652266,-1.3602996486,-0.254124648197,9.40357383577
6094324,-0.0132312572255,0.0727384252877,0.000965062368534,0.997262815898,0.0262287661972,-0.0702544470613,0.000224188828652,-1.37474703647,-0.248721695656,9.37063454682
6094404,-0.0130082188045,0.0734493813071,0.000958115270992,0.997213646439,0.0208455404559,-0.078336323461,-0.00454807737889,-1.38964039351,-0.244761663634,9.37912255304
6094484,-0.012121737639,0.073206160919,0.00088983937368,0.997242763657,0.0142100845194,-0.087868039977,-0.0086885072878,-1.39330916409,-0.229456955456,9.4361695328
6094566,-0.0119662140668,0.0723568966106,0.000868176425134,0.997306640659,0.0140600215106,-0.0961412102553,-0.00521310437268,-1.39144028361,-0.228893256525,9.53599884615
6094645,-0.0117517289134,0.0717222690087,0.000845095897546,0.997355051528,0.0148213638283,-0.10323356273,-0.00142510237776,-1.38457287134,-0.225681995175,9.57434861921
6094725,-0.0117714256057,0.0710304856877,0.000838306042433,0.997404331696,0.0182579996492,-0.112597254952,0.00553028949527,-1.36872083584,-0.225670599693,9.55833299599
6094805,-0.0109418035365,0.0697685054731,0.000765304316968,0.997502905704,0.0232998115719,-0.120769610654,0.0126833550493,-1.33861948026,-0.208904350783,9.5202326223
6094885,-0.00963461304707,0.0693894974,0.000670187680036,0.997542892677,0.0314331794631,-0.128227164444,0.0178265745047,-1.32989605339,-0.183761130977,9.51125876772
6094965,-0.00940002841834,0.0672769248752,0.000633869333801,0.99768985815,0.0341847498905,-0.134830147025,0.0149528453174,-1.29880461934,-0.180646207395,9.58488310975
6095044,-0.00890479894619,0.0654742276307,0.000584311931189,0.997814355805,0.034984312024,-0.140069006758,0.0115258475592,-1.26889701111,-0.171834068431,9.62570583265
6095125,-0.0074328291562,0.0646131150151,0.000481277305725,0.997882591686,0.0397209499187,-0.145766462967,0.0124494793345,-1.24065737903,-0.142125928119,9.53910850935
6095208,-0.00661107024253,0.064430674776,0.000426852022619,0.997900195258,0.0442656929014,-0.150036316815,0.0147064186456,-1.22347417961,-0.12501930443,9.43423825869
6095284,-0.00511336044757,0.0632961201202,0.000324310453041,0.99798163788,0.0461411585681,-0.150895468878,0.0152092021093,-1.18515210054,-0.0953622967694,9.3049967223
6095364,-0.00401330291812,0.0624193304898,0.000250999159711,0.998041911735,0.0464150578452,-0.151410960116,0.015085182126,-1.16622899592,-0.0746950501808,9.28682800164
6095444,-0.00386699929046,0.0610708932807,0.000236604518659,0.998125912062,0.0414711166739,-0.159382675965,0.0141593900132,-1.15822701547,-0.0730686096983,9.4291556755
6095530,-0.00292059451642,0.0610965026849,0.000178772849507,0.998127574776,0.0321194010492,-0.175233647072,0.0110497743767,-1.15677770953,-0.0550939136217,9.41351696975
6095604,-0.00222472906853,0.0604730748207,0.000134783219165,0.998167340497,0.0256569915514,-0.187298370106,0.00875831493331,-1.14345827733,-0.0419148943156,9.40221838498
6095684,-0.000406160125149,0.0585258408322,2.3811680558e-05,0.998285810989,0.0222052359143,-0.196665654233,0.00355222871414,-1.10913039975,-0.00767126447023,9.42680327586
6095764,0.000876808868012,0.0569876941614,-5.00486699929e-05,0.998374494574,0.0197084924705,-0.203137404832,-0.0025512534476,-1.0892519337,0.0167056360933,9.51026779803
6095849,0.00253400232075,0.0541013068023,-0.000137294353923,0.998532227114,0.0156563060355,-0.207871835315,-0.00706472286757,-1.03997530817,0.0485700283845,9.56896563732
6095924,0.00260521809567,0.0509607683864,-0.000132937099903,0.998697249046,0.00939378362127,-0.21241525385,-0.00636728402785,-0.980002971765,0.049971571474,9.57760870246
6096004,0.00306842258286,0.0493650980154,-0.000151658600241,0.998776075445,0.00563627017276,-0.215566995033,-0.00637451078548,-0.950723334573,0.0589527829723,9.59404728935
6096084,0.00352297498809,0.0482694226288,-0.000170251482133,0.998828124604,0.00551021241097,-0.217458039742,-0.0114871275776,-0.932916132091,0.0679328123615,9.62952839924
6096164,0.00528001843719,0.0467955163006,-0.000247355628815,0.998890504447,0.00713733799974,-0.219444046691,-0.0162574578987,-0.906430079645,0.102051249917,9.65249300634
6096244,0.00669465268143,0.0436384599587,-0.000292429476552,0.999024915066,0.008113613353,-0.221061340922,-0.017842585907,-0.845527456967,0.129465497265,9.65908916562
6096324,0.00707583835101,0.0404514535774,-0.000286469609661,0.999156409353,0.00657092825765,-0.218626196968,-0.0166652124047,-0.775227639952,0.135379558369,9.55746256798
6096404,0.00686800812317,0.0390258327913,-0.00026824042258,0.999214562988,0.00394255695459,-0.215036660289,-0.0151074081804,-0.740230354723,0.130069448888,9.46105242482
6096484,0.00683078792572,0.0388173997968,-0.00026535962678,0.999222937784,0.00236553417275,-0.207774657544,-0.00906444490821,-0.731681832219,0.128559324362,9.40224865826
6096565,0.00767736878771,0.0389187123217,-0.000299028690241,0.999212841401,0.00141932050365,-0.200437625467,-0.00373590669908,-0.736847785855,0.145130921766,9.44358085145
6096644,0.00746373819513,0.0374280412,-0.000279556782201,0.999271412676,0.000851592302191,-0.193481265851,0.00116397647225,-0.718638963261,0.143102871907,9.5787528639
6096724,0.00649045000894,0.037572624135,-0.000244040707058,0.999272791793,-0.00672577566354,-0.189733140144,0.00069838588335,-0.723994240994,0.124887210205,9.61316913899
6096804,0.00510191275747,0.0377446281376,-0.000192709634763,0.999274374932,-0.0129749566888,-0.186207194535,0.00041903153001,-0.727207407633,0.0981560822264,9.61203166894
6096885,0.00348132556367,0.0383831867906,-0.000133723723345,0.999257020722,-0.0154473951196,-0.176429206063,-0.00315410157369,-0.737515013428,0.0667945148144,9.58573122915
6096964,0.00176841046312,0.0384473760224,-6.80411565071e-05,0.999259059189,-0.0160794780552,-0.167156892488,-0.00912919198907,-0.742263055908,0.0340912047382,9.63148194794
6097044,0.000758347427905,0.0367137050182,-2.78605346818e-05,0.999325536548,-0.0185871781238,-0.156910913667,-0.0190995971602,-0.71302957915,0.0147086388586,9.69101468146
6097125,-0.000475387361233,0.0344352917054,1.63798186989e-05,0.999406816278,-0.0217945584108,-0.148634876068,-0.0221020098327,-0.66221009002,-0.00913132913603,9.59816569242
6097208,-0.000603284999629,0.0335082764753,2.02264025859e-05,0.999438257746,-0.0241446766445,-0.143243563446,-0.0213493170674,-0.637464480525,-0.011464301632,9.49600878679
6097284,-0.00237964827894,0.0342731547044,8.16062284972e-05,0.999409666494,-0.0281088879535,-0.142562916242,-0.0187692511009,-0.644643770102,-0.0447069672097,9.38778829087
6097364,-0.00353303248038,0.0348690727374,0.000123269298711,0.999385636405,-0.0317644849233,-0.144708668289,-0.0155184512752,-0.655415688331,-0.0663285077184,9.3807956735
6097444,-0.00438975295123,0.0345982873853,0.000151970385692,0.999391647696,-0.0322550828593,-0.148550259885,-0.0093110707651,-0.66355478043,-0.0840898353439,9.57172753838
6097528,-0.00606038904003,0.0330648634037,0.000200499255269,0.999434813428,-0.0299953012521,-0.149578144659,0.00122439852433,-0.640426076266,-0.117252127525,9.66761188435
6097604,-0.00707918170555,0.0327993488475,0.000232323381276,0.999436858399,-0.0277880521649,-0.148917805338,0.00839706022092,-0.639477542732,-0.137867763331,9.73136741626
6097684,-0.00872626642959,0.0323389540866,0.000282356781026,0.99943882484,-0.0217811120365,-0.143413321009,0.0122749671774,-0.629331615971,-0.169630178262,9.71311757622
6097764,-0.0110404068463,0.0326984537217,0.000361219440536,0.999404217552,-0.0156228075907,-0.137130799981,0.0128989511054,-0.635454488382,-0.214305584985,9.69833694954
6097848,-0.0125882285685,0.0319578761766,0.000402530599209,0.999409860178,-0.00767092430855,-0.128678696688,0.00603661041742,-0.618298657384,-0.243265610512,9.65499206963
6097924,-0.0133721696598,0.030467383709,0.000407640765154,0.999446225386,-0.00204841421636,-0.123607434712,-0.00616890516317,-0.579753579196,-0.254177281346,9.49682521004
6098004,-0.0135564898337,0.0293413376629,0.000397973511561,0.999477438017,-0.00122904852981,-0.120138987465,-0.0168977350032,-0.553992910457,-0.255696460361,9.42395174956
6098084,-0.0132712956662,0.028303297355,0.000375805118076,0.999511207962,-0.00244018936374,-0.116355158871,-0.025889173276,-0.533987526059,-0.250143623287,9.41781663933
6098170,-0.0131335909581,0.0281967077808,0.000370503334603,0.999516041485,-0.00486963410994,-0.113659171653,-0.0308583461783,-0.53347646339,-0.248248442038,9.44454193428
6098250,-0.01361602375,0.0284159030275,0.00038710385714,0.999503371932,-0.0105842015723,-0.109487438954,-0.0304343294279,-0.537718808942,-0.257406400428,9.44573306096
6098323,-0.0130006035656,0.0288651810639,0.000375452991692,0.99949869668,-0.0152900122341,-0.106133019211,-0.0233688783943,-0.553432325404,-0.249014805833,9.57046738296
6098399,-0.0132166101085,0.0299871177849,0.000396541056344,0.999462824091,-0.0172621185082,-0.107100197796,-0.0140213270366,-0.582971729227,-0.256669117875,9.70300823617
6098475,-0.0136360557753,0.0304260867337,0.000415122659276,0.999443914836,-0.0171683120883,-0.111937405561,-0.00458158566878,-0.593752186706,-0.265810688254,9.73919769805
6098555,-0.0140739841264,0.0300989595206,0.000423846349572,0.999447745488,-0.0171120282364,-0.113562660036,0.00363639952066,-0.584418730237,-0.272971571644,9.6902824262
6098635,-0.0146495708721,0.0290738878727,0.000426145915722,0.999469818212,-0.0128213573106,-0.107301081676,0.00984426081871,-0.557031421247,-0.280380563836,9.5622921547
6098714,-0.0149132937523,0.028684843389,0.00042800927674,0.999477158437,-0.00769281438636,-0.10056430423,0.0127175974746,-0.546105699672,-0.283628858321,9.50201798325
6098794,-0.0124226786161,0.0288084930072,0.00035805492456,0.999507688606,6.69020442647e-05,-0.0922653371476,0.0114617690379,-0.550084754032,-0.236975541311,9.53169402603
6098876,-0.00918858046928,0.0284139034228,0.000261199939368,0.999553976459,4.01412265588e-05,-0.0877116469597,0.00687706142276,-0.545289581667,-0.176182988361,9.58182137412
6098958,-0.00719903691148,0.0281424203813,0.000202683859862,0.99957797943,2.40847359353e-05,-0.0875335732157,0.00412623685366,-0.540975957252,-0.138270935595,9.59872967383
6099042,-0.00612042583733,0.0280409684186,0.000171693401408,0.999588022637,-0.00168830940429,-0.0950891500756,0.00247574211219,-0.539584883433,-0.117678485429,9.60911407383
6099124,-0.00434099691382,0.0290580707747,0.000126195475279,0.999568290985,-0.00356712601134,-0.100473876315,0.00148544526732,-0.561255734748,-0.0837752003883,9.64479339425
6099208,-0.00282749618919,0.0295538504507,8.3600251608e-05,0.999559186942,-0.00512010603704,-0.101576261751,0.00344540752916,-0.575934186698,-0.0550535235533,9.73084443133
6099284,-0.00237777959187,0.0275285598308,6.54818495645e-05,0.999618187245,-0.00307206362222,-0.100534932766,0.00930397556235,-0.538054325495,-0.0464396434288,9.76140607896
6099364,-0.00269926552394,0.0267604200978,7.22596208192e-05,0.999638228891,0.000710902195437,-0.0999101353757,0.016224636874,-0.523466694418,-0.0527634833229,9.76992684074
6099444,-0.00232127906763,0.0279342046124,6.48685734645e-05,0.999607066636,0.00808896242358,-0.0965554265112,0.0229311740297,-0.539853233204,-0.0448261991246,9.65149849214
6099528,-0.00142423688406,0.0272877366048,3.8878718073e-05,0.999626605022,0.0129414886219,-0.0928398409466,0.0205697454012,-0.515687492901,-0.0268957194748,9.43846532453
6099605,-0.00115101704783,0.0270345035793,3.11285726041e-05,0.999633837866,0.0154273142795,-0.0910361796693,0.0148959876095,-0.503103410047,-0.0214046753372,9.29460427284
6099684,-0.000883894356444,0.0263901699824,2.33342583209e-05,0.999651327771,0.0147903593667,-0.0920824332102,0.005532072074,-0.491003977181,-0.0164341076926,9.2930423806
6099764,-0.000666993204185,0.0267133092597,1.78239604385e-05,0.9996429132,0.0122797361117,-0.0939872555192,-0.00178903749314,-0.500743149248,-0.0124940864417,9.36249477406
6099849,-0.000949158515655,0.0264723247301,2.51352525155e-05,0.999649095678,0.00736784166703,-0.0993870495192,-0.00916153366366,-0.503234770164,-0.0180309391697,9.49490645306
6099925,-0.00156346948734,0.027388432028,4.2837099827e-05,0.999623642937,0.00442070500022,-0.107309516595,-0.0114565810587,-0.529629439979,-0.0302115969491,9.6579110984
6100004,-0.00226667463908,0.0283704523634,6.43326456601e-05,0.999594905689,0.0052065633689,-0.11461713721,-0.00985377906543,-0.556958409837,-0.0444631764312,9.80383733897
6100084,-0.00419690087833,0.0277821796472,0.000116645107574,0.999605183515,0.0133404994964,-0.121555849947,-0.00378381713195,-0.546301312992,-0.0824628045403,9.82004587384
6100164,-0.00557923657205,0.0277609207389,0.000154946876517,0.999599009298,0.0212006916032,-0.124867697467,0.00156092027399,-0.540864735549,-0.10861446373,9.7294539452
6100244,-0.00532259604381,0.0262231060545,0.000139624995298,0.999641935487,0.0288966372975,-0.122172215302,0.00476776271755,-0.499534982687,-0.101321123306,9.51420843646
6100324,-0.00499882473982,0.026416569143,0.000132099551479,0.999638514252,0.0305343742838,-0.118852165758,0.00286065763053,-0.497482046741,-0.09407207706,9.40565126549
6100404,-0.00475201765098,0.0261318974224,0.000124223063555,0.999647201183,0.0281114959839,-0.117711516154,-0.00211481597484,-0.492419562517,-0.0894832291462,9.41162475221
6100484,-0.00466883002708,0.0259157745027,0.000121038319857,0.999653219876,0.0168668975903,-0.122135407129,-0.01148545106,-0.491058013145,-0.08840586156,9.46405055811
6100565,-0.00419509558992,0.0263974656766,0.000110779471408,0.999642717528,0.00841737830836,-0.129046642329,-0.017959212234,-0.504366873317,-0.0800979956957,9.54291123453
6100644,-0.00387802833742,0.0255208533436,9.90035841142e-05,0.999666763046,0.00207059655478,-0.138301664187,-0.020566398754,-0.494635097135,-0.0751132761772,9.68096788329
6100724,-0.0041125893138,0.0233353153461,9.5995521111e-05,0.99971923081,0.00124235793287,-0.142577607117,-0.016596739867,-0.458389670341,-0.0807415704427,9.81336184692
6100804,-0.00394842871244,0.021855830774,8.63174815109e-05,0.999753332138,0.000745414759721,-0.143440412629,-0.00995804392022,-0.431375170613,-0.0778936226855,9.86119476318
6100885,-0.00349632796099,0.0217649573772,7.61159253134e-05,0.999756998739,0.00470414947045,-0.140978265506,0.00424173512295,-0.423785596753,-0.0680445683867,9.72828590088
6100964,-0.0028955580417,0.0225533290738,6.53213624673e-05,0.999741445987,0.00665370023543,-0.138649597109,0.0144643627947,-0.433836482563,-0.055670791325,9.6104727771
6101044,-0.00180195815718,0.0216646542,3.90480286114e-05,0.999763669164,0.00186376983395,-0.139380846379,0.0142125884758,-0.41041833363,-0.034120735293,9.4653252312
6101124,-0.000896551245489,0.0202163047161,1.81286654249e-05,0.99979522748,-0.00952398963618,-0.145779256801,0.00597341271673,-0.380805133479,-0.0168811386856,9.4124737874
6101208,-0.000941027686688,0.0192089341418,1.80794826887e-05,0.999815048391,-0.018910785687,-0.151746753361,-0.000672852984584,-0.363276633554,-0.0177901285239,9.4506736096
6101284,-0.000516174338103,0.0184197609214,9.50942252048e-06,0.999830208526,-0.0270970036863,-0.157030011543,-0.00508630246683,-0.355393155425,-0.00995581661627,9.64214529979
6101365,0.000183679981052,0.0177841910539,-3.26711662946e-06,0.999841831891,-0.0328601146088,-0.160625656514,-0.00730868209472,-0.348987127386,0.00360331667087,9.80706712861
6101444,-0.000108708971777,0.0172720142017,1.87790304673e-06,0.999850821725,-0.0350409109779,-0.164485803742,-0.00438520925683,-0.341312787906,-0.00214757298576,9.87609270514
6101528,-0.000248693979322,0.0166550227784,4.14257861297e-06,0.999861264551,-0.0308154180004,-0.167653272202,-0.0026311255541,-0.326891957412,-0.00487984628169,9.80952955619
6101604,-0.000790389960648,0.016930557715,1.33836653382e-05,0.999856355343,-0.026577361968,-0.169128063217,-0.00157867533246,-0.329492206918,-0.0153777564018,9.72649603694
6101684,-0.000896393721047,0.0151549236251,1.35863441298e-05,0.999884755651,-0.0274400488403,-0.167033107395,-0.00903531636725,-0.289632667901,-0.0171275193196,9.55241685922
6101764,-0.00129035011795,0.0142123807685,1.83408149147e-05,0.999898166261,-0.0313631814553,-0.164073373656,-0.0181918916642,-0.268829406649,-0.0244023013867,9.45467311724
6101848,-0.00150874369389,0.0125209661712,1.88924312444e-05,0.999920471208,-0.0388253417619,-0.161871843352,-0.0275170473955,-0.234799634956,-0.0282883302949,9.37400021678
6101924,-0.00265566566741,0.0117486616627,3.12027810191e-05,0.999927455076,-0.0441540180688,-0.164382135722,-0.03183507065,-0.219170175261,-0.0495341407551,9.32535705634
6102004,-0.00416687281677,0.0109464637279,4.56156512599e-05,0.999931402658,-0.0456484636071,-0.169293831636,-0.0318717442338,-0.204525255791,-0.0778439378222,9.33998505045
6102084,-0.00488808190691,0.00839121225037,4.10188670165e-05,0.999952845153,-0.0393083998852,-0.180754650413,-0.0246570173393,-0.159107018709,-0.0926750345683,9.47900641723
6102164,-0.00581813754756,0.00820387352593,4.77336789447e-05,0.999949420449,-0.0312474610374,-0.191036662172,-0.0147942104036,-0.158431714888,-0.112347600087,9.65411716089
6102244,-0.00741734445658,0.007202447862,5.34258922826e-05,0.999946551017,-0.0187484766225,-0.199760009595,-0.000788415074373,-0.141027700808,-0.145220114007,9.78815344717
6102324,-0.00963085633577,0.00743565805547,7.16170560546e-05,0.999925973493,-0.0086949456047,-0.203716947865,0.0105948925534,-0.145668762819,-0.188646218795,9.79220018598
6102404,-0.0102146532897,0.00695945189544,7.10938191972e-05,0.999923607999,-0.00266282699405,-0.200131449967,0.0157221168842,-0.135045870728,-0.198181890212,9.69909958302
6102484,-0.0113972325848,0.00698977678401,7.96712330655e-05,0.999910615886,-0.00159769619643,-0.191594800306,0.00943327013052,-0.134178799292,-0.218747343356,9.59439750738
6102565,-0.0124802573206,0.00719132796807,8.97589355968e-05,0.99989625458,-0.00308706802517,-0.184344360202,-0.000725388843619,-0.136771018589,-0.237311539559,9.50500062357
6102644,-0.0141824971305,0.00620342397035,8.79905860339e-05,0.999880176103,-0.00781190167557,-0.178291335893,-0.0153343854573,-0.117496795724,-0.268561351225,9.46500944275
6102724,-0.0144644462993,0.00475061852904,6.87230318329e-05,0.99988409663,-0.0102211118043,-0.176362281554,-0.0258025436714,-0.0906093713796,-0.275819070257,9.53127613684
6102804,-0.0141006471304,0.00247306000382,3.48753203992e-05,0.999897522003,-0.00613266708261,-0.180313129688,-0.0316577485384,-0.0481406985113,-0.274427617691,9.7280957822
6102885,-0.0144772927343,0.000591296019994,8.5612643045e-06,0.999895023635,0.00100299042652,-0.184812088876,-0.0296369006596,-0.0116461671537,-0.285084914121,9.84283568709
6102964,-0.0148558995192,-0.000901263526146,-1.33905635402e-05,0.999889238763,0.00911559548515,-0.186234394205,-0.0237418012562,0.0176725768074,-0.291239871812,9.79891273184
6103044,-0.0129962546345,-0.00151706785371,-1.97178880927e-05,0.999914394077,0.0178143690735,-0.181128116541,-0.0121166304464,0.0290388988676,-0.248724754386,9.56665761591
6103124,-0.0109760367111,-0.00201263700464,-2.20921531998e-05,0.999937735773,0.0217565630421,-0.17423313939,-0.0034387677147,0.0377740534319,-0.205977431977,9.38133587448
6103210,-0.00946402861421,-0.0025863931653,-2.44788770946e-05,0.999951869909,0.0160337682555,-0.170096153099,0.00176794992434,0.0480429696568,-0.175780055378,9.28546572024
6103284,-0.00912263732525,-0.00342329457414,-3.12309574641e-05,0.999952527657,0.00451198021575,-0.175276382431,0.00404060038484,0.0640205461984,-0.170590318383,9.34861139137
6103364,-0.00907015244936,-0.00364586021826,-3.30700881327e-05,0.999952218331,-0.00495523297686,-0.180938660399,0.00540419066114,0.069058108969,-0.171786039174,9.468619911
6103444,-0.0087259070548,-0.00435401677269,-3.79945523643e-05,0.99995244869,-0.0110612509539,-0.188592927794,0.0074994150113,0.0842910750982,-0.168912169159,9.67757335773
6103530,-0.00788725889343,-0.00501155892347,-3.95291886924e-05,0.999956335978,-0.0121707213713,-0.1957396286,0.00960792974433,0.0989375185941,-0.155695679181,9.86902539159
6103604,-0.00643293895737,-0.00614164535857,-3.95103924369e-05,0.999960447182,-0.00474829245403,-0.200027649084,0.0117244187071,0.122569434985,-0.128372751747,9.97695342709
6103684,-0.00467295705318,-0.00752025616965,-3.51432116103e-05,0.999960803224,0.00353637544951,-0.191532519776,0.0134200021462,0.148240752788,-0.0921071215071,9.85472309874
6103764,-0.0037825484679,-0.0089554622282,-3.38760707674e-05,0.999952744321,0.00595303582286,-0.181327161454,0.0135859720867,0.173938610608,-0.0734602055214,9.70979827208
6103849,-0.00262818017041,-0.00928659804527,-2.44079896475e-05,0.9999534245,-0.00025938905944,-0.170947045846,0.0107057236208,0.176907476668,-0.0500616274632,9.5234840072
6103924,-0.00244947014226,-0.00924355254311,-2.26428412588e-05,0.999954277115,-0.00654098435759,-0.166421736727,0.00642343417248,0.173900392983,-0.046078127601,9.40523110378
6104006,-0.00382564578523,-0.0110332171343,-4.22120589386e-05,0.999931813061,-0.0128640819053,-0.165835001563,0.00129992013471,0.206812066844,-0.0717001871075,9.37019238663
6104084,-0.00381384064692,-0.0141557799113,-5.39936916772e-05,0.999892527024,-0.0153808702495,-0.16718572071,-0.00305125847233,0.267260499384,-0.0719899523524,9.43679693711
6104166,-0.00340541551255,-0.015307187359,-5.21337437728e-05,0.999877037661,-0.0130597327028,-0.169698912444,-0.00438489545217,0.293234491769,-0.0652206266849,9.57468251529
6104250,-0.0025001917477,-0.0138756065872,-3.46951256837e-05,0.99990060275,-0.00485600919147,-0.172483897669,-0.0026309372713,0.271708761468,-0.0489486028176,9.78789785268
6104330,-0.00280544680358,-0.0126758373229,-3.5564384591e-05,0.999915722124,0.00347174540705,-0.17287781862,-0.00157856236278,0.250653037642,-0.0554659597862,9.88446301337
6104401,-0.00538137416504,-0.0137825043125,-7.41769325667e-05,0.999890532951,0.0161308192725,-0.167580200391,-0.000947137417669,0.269862485427,-0.105345045842,9.7865395817
6104477,-0.00658810540614,-0.0144099465641,-9.494616614e-05,0.999874462766,0.0296859244522,-0.158016278532,-0.000568282450601,0.279712212936,-0.12785047233,9.70144930444
6104555,-0.00836626128636,-0.0149137972074,-0.000124790971933,0.999853773685,0.0373932974986,-0.150575165171,-0.00332079990059,0.287058570437,-0.160986181835,9.61903109634
6104634,-0.00981773763801,-0.0172231671968,-0.000169125777887,0.999803453653,0.0377608207118,-0.145259117031,-0.00880352092375,0.326661149343,-0.186134851191,9.47668514706
6104714,-0.0114082896515,-0.0188587369952,-0.000215198217195,0.999757046815,0.0362785743939,-0.143772248393,-0.0129445336606,0.35497167984,-0.214631582101,9.40324858579
6104794,-0.0121106070635,-0.0193164149847,-0.000233994340108,0.999740043489,0.0366662967875,-0.147562717886,-0.0154291413027,0.367887855316,-0.230532519817,9.51385207628
6104875,-0.012524099696,-0.0186206887361,-0.000233266110321,0.999748149518,0.0368989302237,-0.151539759828,-0.0164942158264,0.361032930475,-0.242706704273,9.68555904362
6104956,-0.0123268644951,-0.0196418123388,-0.000242187093343,0.999731058318,0.0344843699166,-0.151797534686,-0.0167075704793,0.38636865599,-0.242349769634,9.82593276992
6105037,-0.0108190545952,-0.022282342944,-0.000241147881899,0.99969314647,0.0321842536094,-0.14599253874,-0.0125786826563,0.434849494375,-0.211010987269,9.74759071298
6105117,-0.00990547537298,-0.0225162498087,-0.000223101673145,0.999697379349,0.0308041838251,-0.13867833062,-0.0075472095938,0.432813375824,-0.190292356521,9.60146553008
6105197,-0.00751232204381,-0.0210593347391,-0.000158244067038,0.999749990946,0.024867861217,-0.12918152501,-0.00282556551043,0.39879114195,-0.142187573337,9.46063914349
6105277,-0.00599156505081,-0.0196823261071,-0.000117952904993,0.999788324234,0.0149207167302,-0.123483441644,7.42093958992e-06,0.369279835316,-0.112367022762,9.37470679054
6105357,-0.00508747042776,-0.0206341124296,-0.000104999151424,0.999774144507,0.00256707911619,-0.123470112116,0.00383566311691,0.388204336737,-0.0956717932469,9.40024067222
6105437,-0.00387817168381,-0.0193342454522,-7.49961061095e-05,0.999805551651,-0.00399372332929,-0.127293324952,0.009538128915,0.369870937003,-0.0741624875692,9.55945252101
6105517,-0.00331519525938,-0.0189111714187,-6.27057844199e-05,0.999815669583,-0.00580175448927,-0.1312900129,0.0138109885168,0.368687123969,-0.0646087864869,9.74236799088
6105597,-0.00196915086973,-0.0179641513917,-3.53799021618e-05,0.999836691894,-0.00092691232479,-0.13709354616,0.0163747042778,0.360315390837,-0.0394835323902,10.0237815318
6105677,-0.000860004110048,-0.0192445603532,-1.65534727236e-05,0.999814436291,0.00412644328121,-0.140149976055,0.0170615536116,0.390965955693,-0.0174651951177,10.1521676483
6105757,-0.000789008926368,-0.0216295248108,-1.70698868897e-05,0.999765742977,0.00928690695212,-0.131767272517,0.0161965930274,0.431861790213,-0.015746360723,9.97613220278
6105837,-0.000622441825704,-0.022996246816,-1.43176149022e-05,0.999735357479,0.00557214417127,-0.114818328673,0.00971795581644,0.446583064118,-0.0120814382599,9.70219855873
6105917,-0.00104315200285,-0.0226132078473,-2.35950594271e-05,0.999743744221,-0.00176499423478,-0.103797582244,0.00412801324402,0.432431492524,-0.0199381317548,9.55411894359
6105997,-0.000736589704253,-0.0246208714813,-1.81409846195e-05,0.999696588868,-0.0163838387535,-0.101867725062,-0.00178009266821,0.464163137457,-0.013878240381,9.41762656146
6106079,-0.000570965431883,-0.0260603051755,-1.48845910436e-05,0.999660209407,-0.0277092858335,-0.102412570999,-0.0036221959697,0.4896664689,-0.0107211458888,9.38529110656
6106161,-0.000583277541004,-0.0279057580065,-1.62831460158e-05,0.999610388197,-0.0336531739586,-0.107847759299,0.00165789297134,0.525798022209,-0.0109816706876,9.40994314416
6106245,-0.000169076514468,-0.0268877558579,-4.54773229937e-06,0.999638444628,-0.0287057056044,-0.115791462955,0.0078057767662,0.515155231783,-0.00323712008831,9.56934414699
6106325,-0.000394167995289,-0.0248656841041,-9.8042890928e-06,0.999690723319,-0.0214803239773,-0.118429234841,0.0106431269202,0.485306381257,-0.00768835603736,9.7495000673
6106405,0.000437720170188,-0.023656310061,1.03577436701e-05,0.999720054459,-0.010759744079,-0.112775166928,0.00936570658235,0.462608667621,0.00855509550844,9.76948699839
6106485,8.02846023979e-05,-0.0235422356875,1.89060303139e-06,0.999722839936,-0.000921875648419,-0.106828585811,0.0034909736421,0.452341921764,0.00154175481483,9.59904099054
6106565,-0.000204495915352,-0.0232249377765,-4.75068643658e-06,0.999730243828,0.00370377522557,-0.10283494708,-0.00343938661375,0.438999269269,-0.00386335043141,9.4433826888
6106646,-0.00039455759402,-0.0249474010059,-9.84625178169e-06,0.999688687247,-0.000331875233431,-0.101290143964,-0.0144086437506,0.464751921181,-0.00734583374518,9.30593439722
6106727,-0.00192987916391,-0.0264055431078,-5.09773776422e-05,0.999649448687,-0.00615878600053,-0.102491712402,-0.0226929582786,0.489780318968,-0.0357715419952,9.26440627065
6106808,-0.00452635470982,-0.0259510112897,-0.000117504260685,0.999652961442,-0.0117833827681,-0.109172314325,-0.0251094066267,0.488516786352,-0.0851486893572,9.40229510761
6106879,-0.00669185343167,-0.0250599962559,-0.000167754265017,0.999663537168,-0.0100498600911,-0.120843096585,-0.0180454744062,0.487519246616,-0.1300978684,9.71678713048
6106959,-0.00744364333586,-0.0238583034745,-0.000177648195016,0.999687622195,-0.00602991605465,-0.132102466556,-0.0108272846437,0.476865075801,-0.148687670014,9.98377273849
6107035,-0.00872230934271,-0.0251306166958,-0.000219274614069,0.999646100049,0.00447016153499,-0.139709468661,-0.00309085029455,0.507103858713,-0.175882702106,10.0778841375
6107116,-0.00815147176774,-0.0259556770138,-0.000211655315302,0.99962983726,0.0154527987649,-0.139591079248,0.00325377056082,0.52165582597,-0.163708721606,10.0371463895
6107196,-0.00927188146968,-0.0265106058598,-0.000245900202373,0.999605501948,0.0258735916559,-0.128026413941,0.00620916295111,0.516740056861,-0.180585770073,9.73353982709
6107276,-0.00873390898031,-0.0261481530097,-0.000228462427386,0.999619898128,0.0282948568374,-0.119384854511,0.00372549777067,0.496073503111,-0.165572881721,9.47428259621
6107356,-0.00751026692218,-0.0255612268231,-0.000192039804987,0.999645028345,0.0169769141025,-0.120159579713,-0.00415005225953,0.47289966339,-0.138848056425,9.23995902306
6107439,-0.00824239973027,-0.0287483546549,-0.000237061475524,0.999552669324,-3.04130136178e-05,-0.129563906125,-0.0105781425235,0.529863728698,-0.151783001336,9.20255497072
6107517,-0.00951968964396,-0.0308190552639,-0.00029354059912,0.999479602181,-0.012788949652,-0.136909262218,-0.013583616559,0.572900714025,-0.176782220235,9.27923248805
6107596,-0.00919927558487,-0.0309546438541,-0.000284908903637,0.999478415064,-0.0195926915122,-0.145147686427,-0.0128327606115,0.590343199411,-0.17526176012,9.51988759341
6107675,-0.00825753729733,-0.028487572839,-0.000235340742532,0.999560011148,-0.0198437260751,-0.15221919126,-0.0102537967356,0.558191901092,-0.161660215251,9.78351189931
6107756,-0.00764099971282,-0.0280262020866,-0.000214238619029,0.999577961553,-0.00977778533773,-0.157739164344,-0.00615227804139,0.562603718536,-0.153259868165,10.0238075998
6107837,-0.00687993675099,-0.0285491131017,-0.000196500844235,0.999568694987,0.00434989027245,-0.158497007826,-0.000711536394598,0.568842111493,-0.13696691211,9.94915498834
6107916,-0.00630547829715,-0.029497896204,-0.000186083023885,0.999544936677,0.0136778757615,-0.156823263607,0.0034042887164,0.577612970753,-0.12336041582,9.77699189315
6107995,-0.00463362805205,-0.0307679966501,-0.000142636516622,0.99951580254,0.0141663863174,-0.152413496585,0.00374533347569,0.587424469464,-0.0883814594532,9.53195729776
6108075,-0.00476127289999,-0.0325256235929,-0.00015494711149,0.999459548997,0.00849983179041,-0.148916256248,0.00224720008541,0.611507301307,-0.0894207409063,9.38493654052
6108155,-0.00493356324163,-0.0349994559571,-0.00017277999289,0.999375138866,-0.00809649283107,-0.151500502722,-0.0037599606863,0.658278722825,-0.0926779316043,9.38626722827
6108235,-0.00661262644692,-0.0381233443422,-0.000252284363317,0.999251129667,-0.0252910186488,-0.15986209159,-0.00608718696494,0.726085323295,-0.125756867605,9.50102963994
6108316,-0.00643032097387,-0.0396116123774,-0.000254920738735,0.999194428604,-0.035182044078,-0.166156115095,-0.00578076248627,0.762459720588,-0.123577573932,9.60053286819
6108395,-0.00611761176617,-0.0398137121942,-0.00024376268111,0.999188362486,-0.0326028581063,-0.175040809936,-0.00346845749176,0.78452377913,-0.1203546364,9.82806834152
6108475,-0.00519284191467,-0.0401890704442,-0.000208867057652,0.999178577325,-0.0255213757242,-0.180797316902,-0.00208107449506,0.806620760398,-0.10405566392,10.0103188772
6108556,-0.00458058095614,-0.0406975256299,-0.000186574848004,0.999160995473,-0.0114816148814,-0.175737419852,-0.00465416518873,0.81556938617,-0.0916426586061,9.99445245182
6108635,-0.00317175533537,-0.0420453871842,-0.000133476387244,0.99911065832,0.00247621242333,-0.164187680393,-0.00704939972786,0.82237508263,-0.0619287799781,9.75341329605
6108715,-0.00229558477495,-0.0422781692143,-9.71402333729e-05,0.999103236539,0.00999952868324,-0.15512938641,-0.0101893006972,0.809220248553,-0.0438610326353,9.54438577792
6108795,-0.00186416095088,-0.0436475692493,-8.14438528599e-05,0.999045248209,0.00599971720994,-0.147140269652,-0.0171815220163,0.819523280723,-0.0349357455577,9.36102958687
6108875,-0.0015416845732,-0.044759720286,-6.90746805241e-05,0.998996589522,-0.000657070288653,-0.141921109535,-0.0226539249922,0.83264828484,-0.0286228926471,9.27328194768
6108954,-0.00314480814782,-0.0468857544911,-0.00014760976769,0.998895297025,-0.0114621837712,-0.137512543281,-0.0242346065319,0.871887329058,-0.058354004143,9.26708087637
6109035,-0.00667309258493,-0.048830865303,-0.000326249370634,0.998784716538,-0.0175195617993,-0.136570163774,-0.0222031850254,0.918893931859,-0.125273805074,9.37421177045
6109115,-0.00817849143493,-0.0504629970663,-0.000413251574092,0.998692358751,-0.0181741581859,-0.1389845665,-0.0205586420601,0.964096725326,-0.155848878991,9.51438649953
6109197,-0.00885069321585,-0.0497547264002,-0.000440927257173,0.99872215256,-0.0109044949115,-0.144690108751,-0.0191462262195,0.97900797294,-0.17371508301,9.79984369659
6109275,-0.009245109602,-0.0502363283479,-0.000465047500027,0.998694459278,0.000694034097937,-0.148113434101,-0.0178730866536,1.00998137678,-0.185392486085,10.0120588632
6109355,-0.00925535674576,-0.0501901498935,-0.000465133957929,0.998696686124,0.0174440229172,-0.144207768451,-0.0171092029141,1.01348194863,-0.18641342378,10.0560697454
6109435,-0.00809171610866,-0.0495158161487,-0.000401173212698,0.998740480376,0.0308995367005,-0.130370737401,-0.0136710422402,0.981345207995,-0.159971507637,9.87130768832
6109517,-0.00650929517226,-0.0481292861486,-0.000313657891801,0.998819854884,0.0355673244788,-0.118237308218,-0.0111824557743,0.936684626018,-0.126389265666,9.6960464294
6109595,-0.00551660270682,-0.0486953345044,-0.000268955989592,0.998798407665,0.0243202251175,-0.107977420278,-0.013520514448,0.923056385962,-0.104324559156,9.44340685178
6109681,-0.00585356760078,-0.0490152407826,-0.00028726424747,0.998780836519,0.0120379947017,-0.102672867637,-0.016626109898,0.917273643589,-0.109281667866,9.32246888646
6109755,-0.00749288188106,-0.0521743547083,-0.000391480511784,0.998609803765,-0.000439624285276,-0.105024106851,-0.019340847291,0.972701359005,-0.139310411853,9.28222782968
6109837,-0.00814123972065,-0.0547981900546,-0.000446811432331,0.998464160069,-0.00622343543163,-0.110266060933,-0.018415549358,1.02822406369,-0.152299834758,9.33804953106
6109915,-0.00920155094887,-0.0554375889686,-0.000510919244256,0.99841962328,-0.00628820162775,-0.113836923444,-0.0174346805367,1.05435508153,-0.174458698462,9.46347989564
6109995,-0.00816088576301,-0.0539788265637,-0.000441172987729,0.99850863371,0.00303812000674,-0.115553750888,-0.0198259896742,1.05016181845,-0.158305336265,9.68334789466
6110075,-0.00773078092562,-0.0526457280145,-0.000407570017006,0.998583244519,0.013742193725,-0.116158157294,-0.0225378453411,1.04429397828,-0.152922881935,9.87536315574
6110155,-0.00634830372317,-0.0504919752438,-0.000320954274548,0.998704238733,0.024847228632,-0.11439235083,-0.0216108183724,1.01036691309,-0.126709073399,9.96591203529
6110235,-0.00538545364107,-0.0502354369221,-0.000270886580391,0.998722846633,0.0268276589001,-0.107373206091,-0.0206289121298,0.98857415298,-0.105713544625,9.80141133128
6110316,-0.00466850493514,-0.0505559827216,-0.000236325646567,0.998710289235,0.0250360866308,-0.100181888817,-0.0213168385686,0.974540816251,-0.089764345037,9.60071791815
6110395,-0.00460164475952,-0.0502221648691,-0.000231399030229,0.998727443037,0.0184271724702,-0.0890560574698,-0.0230066646162,0.948164301762,-0.0866591697663,9.40344799699
6110475,-0.00483955419371,-0.0499495885668,-0.000242038713099,0.998739985549,0.0110563034821,-0.0815291785384,-0.0235948701834,0.931859552737,-0.0900633082563,9.29250806943
6110557,-0.0040507467282,-0.052338666775,-0.000212303416795,0.998621154562,0.00152550135172,-0.0838240921629,-0.0222450332778,0.973073198683,-0.0751069595631,9.25730815465
6110635,-0.00392303867291,-0.0541053613741,-0.000212570434388,0.998527503102,-0.00632143023382,-0.0915863912596,-0.0188809907657,1.01408195754,-0.0733157553277,9.32980149069
6110717,-0.00353579532287,-0.055137878163,-0.000195254508737,0.998472470536,-0.0093268289393,-0.0975208409019,-0.016436875197,1.047545759,-0.0669737891341,9.45565802942
6110794,-0.0026371325497,-0.0529708083239,-0.000139887925378,0.998592569284,-0.00559609736358,-0.102358580872,-0.0132676456099,1.03123217464,-0.0511976011172,9.69278056472
6110875,-0.00201069702405,-0.0502113440342,-0.000101087515426,0.998736585797,-0.00335765841815,-0.106112604977,-0.00796058736592,1.00276925107,-0.0400559471449,9.94758156393
6110955,-0.00125973173101,-0.0476738270251,-6.01246448383e-05,0.9988621605,-0.00456873541966,-0.113473300177,-0.00222221205078,0.966059043318,-0.0254700892831,10.0973497013
6111035,-0.00143414933683,-0.0478436422549,-6.86936641242e-05,0.998853805315,-0.00572107168203,-0.11874109742,0.00207219326123,0.96725667477,-0.0289290030327,10.073725425
6111115,-0.00127787575603,-0.0501920780676,-6.4220236598e-05,0.998738763746,-0.00343264300922,-0.115516424844,0.00550021657136,0.994550892069,-0.0252582672981,9.86993008778
6111196,4.59044002504e-05,-0.0520531376186,2.39271182602e-06,0.998644315435,-0.00759355660454,-0.109324720684,0.00968548086474,1.00757554012,0.000886190744158,9.63895613006
6111275,0.00169740719307,-0.0522802603158,8.88625422405e-05,0.998631005574,-0.0134956252534,-0.104758318065,0.0134737096252,0.999828018166,0.0323745965266,9.52287725103
6111355,0.000957718446838,-0.0542572377992,5.20398366241e-05,0.998526530551,-0.0242735974876,-0.102869856616,0.0178750971887,1.03564151305,0.0182276570859,9.50159279715
6111434,0.000651977557947,-0.0567094140755,3.70328692331e-05,0.99839051273,-0.0332945211969,-0.104290920116,0.0205159297269,1.07963510558,0.0123731152476,9.47302039387
6111514,-0.000940679711757,-0.0589727989322,-5.55712569893e-05,0.998259145222,-0.0404098356683,-0.110251838953,0.0225261193112,1.11441096691,-0.0177152482831,9.39913437255
6111594,-0.0018309497889,-0.0591734591982,-0.000108533997941,0.998246030581,-0.040847813798,-0.114254080317,0.021178092693,1.12115069392,-0.0345711655714,9.42351634741
6111675,-0.00231051653907,-0.0590989552035,-0.000136788569226,0.998249445928,-0.0381307702456,-0.115804045013,0.0173894462919,1.12232148813,-0.0437270352803,9.4453281373
6111755,-0.00388227430002,-0.0578282659881,-0.000224883225953,0.998318971585,-0.0313922633766,-0.117159713891,0.0104336677751,1.11129237652,-0.0743596745373,9.55992936163
6111835,-0.00378068047309,-0.0565889073014,-0.000214289500933,0.998390382619,-0.0256463990093,-0.120952945649,0.00626020066509,1.10132302723,-0.0733462246443,9.68375673441
6111914,-0.00447820270281,-0.0563717695006,-0.00025284882623,0.998399772321,-0.0209218102046,-0.128762855502,0.000350599907356,1.10898836712,-0.0878216251674,9.78893835949
6111994,-0.00472861218993,-0.057615334699,-0.000272896961116,0.998327621055,-0.0163842966759,-0.133448801414,-0.00532361085459,1.13585364649,-0.0929155629911,9.80751518366
6112074,-0.00470853504414,-0.0593327656097,-0.000279866577231,0.998227115589,-0.0136617885587,-0.133706228593,-0.00915382737322,1.16514092325,-0.092141203029,9.76622826181
6112154,-0.00666445364544,-0.0621071101209,-0.000414719840782,0.998047153163,-0.0145824240572,-0.127475333978,-0.00889781691563,1.20928892773,-0.129265553116,9.6780097647
6112234,-0.00736212185123,-0.0643700471934,-0.000474897973395,0.997898827867,-0.017688945725,-0.120756966779,-0.00704145039523,1.2400872934,-0.14124509603,9.57120912909
6112315,-0.00904526946048,-0.065536248905,-0.000594094683369,0.997809014908,-0.0208299289101,-0.11119197566,-0.00422487023714,1.25258080866,-0.172135418214,9.49276353775
6112394,-0.00829407738968,-0.0660005317316,-0.000548628749627,0.99778496536,-0.0201603784524,-0.107155741235,0.000444908287953,1.25600677499,-0.157150788282,9.45120284677
6112474,-0.00857220439693,-0.0664113709957,-0.000570572587043,0.997755341535,-0.0180558879319,-0.105585380703,0.00367246546447,1.26285075811,-0.162285800117,9.44302584381
6112554,-0.00946415565656,-0.0671106094429,-0.000636609167738,0.997700451331,-0.0108335327591,-0.106345924629,0.00560899977038,1.28539250076,-0.180450277678,9.50970627166
6112634,-0.00938003871791,-0.0669504478391,-0.000629437940209,0.99771201066,-0.00650011965548,-0.108505011231,0.00677092035392,1.29125610104,-0.180096216411,9.57629016681
6112715,-0.0105644238819,-0.0654471121241,-0.000692935579995,0.997799873874,0.00205958906718,-0.107672012885,0.00619100251966,1.26819862278,-0.203825796253,9.62366252904
6112794,-0.00994644077254,-0.0651842137064,-0.000649765158489,0.997823463547,0.00889817454662,-0.102489623201,0.0037146015118,1.28237629525,-0.194839788055,9.77131718905
6112874,-0.00944624635276,-0.0645569904347,-0.000611123463358,0.997869124657,0.0130013258343,-0.0981031192064,0.00222876090708,1.28537623492,-0.187293401641,9.89079518648
6112954,-0.00948955289874,-0.0652870736522,-0.000620897947206,0.997821206873,0.0107806259308,-0.0916400062564,0.00133725654425,1.3041750305,-0.188751073944,9.92178055671
6113034,-0.00917216027268,-0.0665924992912,-0.000612181887383,0.997737909347,0.00646837555849,-0.0856336881791,-0.00132609638076,1.32527053466,-0.181724811847,9.88219267851
6113114,-0.0104099396092,-0.0688203972798,-0.000718158076558,0.997574493622,-0.00207863552538,-0.0807528271483,-0.00249841807431,1.34295566064,-0.202169331688,9.68486033123
6113195,-0.00991821479516,-0.0715817395662,-0.000711824368304,0.997385169772,-0.0101866726059,-0.0735674099153,-0.00149905084458,1.37152324868,-0.189057505995,9.50397225953
6113275,-0.00970135601601,-0.0728991878435,-0.000709141416268,0.997291877647,-0.0142001147313,-0.067979089391,-0.00089943050675,1.38148119652,-0.182866351742,9.39735477784
6113355,-0.00825565851258,-0.072604304266,-0.000601003139433,0.997326475082,-0.0127769694534,-0.0659031672609,-0.00053965830405,1.37644263759,-0.15568848292,9.40233729663
6113434,-0.00734965453179,-0.0720200026038,-0.00053071475138,0.997375967299,-0.0110717021637,-0.0642319239213,-0.00032379498243,1.37054646024,-0.139142341461,9.43956389165
6113518,-0.00616754730524,-0.0703726453808,-0.000435113702916,0.997501610434,-0.00962285172848,-0.058972277303,-0.000194276989458,1.34163021623,-0.117004228119,9.46046332767
6113594,-0.00528673198038,-0.0690459847675,-0.000365906008709,0.997599402849,-0.00917923152879,-0.0545394191476,-0.000116566193675,1.320210327,-0.100608897955,9.49119892189
6113677,-0.0059056055807,-0.0676004299216,-0.000400143841335,0.997694916085,-0.00848736934751,-0.0531567744387,-6.99397162049e-05,1.29706332633,-0.112798355131,9.52687853038
6113754,-0.00658396023672,-0.0665137159931,-0.000438905188624,0.99776369167,-0.0050924216085,-0.0540299478593,-4.19638297229e-05,1.28437222675,-0.126576373918,9.5897059842
6113836,-0.00677569677866,-0.0662406738086,-0.000449825076571,0.997780567421,-0.0030554529651,-0.055830922096,-2.51782978338e-05,1.29112277697,-0.131491302867,9.68031431317
6113914,-0.00699170978855,-0.0663938612816,-0.00046524462248,0.997768888433,-0.00183327177906,-0.0598913370682,-1.51069787003e-05,1.30283455241,-0.13659504173,9.74521379787
6113994,-0.00649199822763,-0.06709216688,-0.000436555144452,0.997725565735,-0.00109996306744,-0.0584963754984,-9.06418722015e-06,1.32302972681,-0.127446856581,9.79205435416
6114074,-0.00716333780859,-0.066562286822,-0.00047788029735,0.997756443324,-0.000659977840462,-0.0538281880034,-5.43851233209e-06,1.32149988198,-0.141590399105,9.85942359516
6114155,-0.00789309174652,-0.0663417486843,-0.00052481415281,0.997765601759,-0.000395986704277,-0.0484731351376,-3.26310739925e-06,1.32153965575,-0.156540869102,9.89266253478
6114235,-0.00877984019907,-0.0662166724084,-0.000582673220806,0.997766469267,-0.000237592022566,-0.0452601034181,-1.95786443955e-06,1.31725395703,-0.17389085691,9.87908707531
6114315,-0.00826420643713,-0.068484028883,-0.000567317603834,0.997617822029,0.00198589509377,-0.0390753837718,0.00340434577303,1.34508889887,-0.161555933824,9.74955577546
6114394,-0.00834784929232,-0.0719043919629,-0.000601825970225,0.997376413213,0.00119153705626,-0.0340874817996,0.00800226832429,1.38860492258,-0.160379904288,9.5791813913
6114474,-0.00736148759683,-0.0741504003358,-0.000547379103889,0.997219748604,0.000714922233757,-0.0310947406163,0.0120380920394,1.41351743597,-0.139562992622,9.45133880304
6114554,-0.00645800009717,-0.0744324291852,-0.000482031898759,0.997205031759,-0.00127380690559,-0.027170645599,0.0165880365758,1.40332582657,-0.121087341472,9.34733935116
6114635,-0.00467341410136,-0.0774810296016,-0.000363196771104,0.996982806943,-0.00331842451213,-0.0239648084657,0.0193180032977,1.48723284335,-0.089172396338,9.51023405625
6114715,-0.00775239102728,-0.0785958727975,-0.000611215235582,0.996876228841,0.011205337198,-0.0173587155097,0.0115908019786,1.63262685933,-0.16004541168,10.288163571
6114796,-0.0115639016458,-0.0819503260347,-0.000950928267028,0.996568871668,0.0458866879733,0.014274794259,-0.00241070016501,1.66910619372,-0.233933262633,10.07736221
6114876,-0.00999775640557,-0.0833357942642,-0.000836121628488,0.996471018727,0.0654184282541,0.0447485317797,-0.0082574610824,1.63233585369,-0.194468915099,9.68895573174
6114955,-0.00835048533755,-0.0826373359564,-0.000692454667091,0.996544459925,0.0639410805173,0.0745264059515,-0.00495447664944,1.57292410376,-0.157861617614,9.41760461824
6115036,-0.00835758212807,-0.0823778428588,-0.000690852052134,0.996565885705,0.0660345023054,0.0957986509464,-0.010635107096,1.56720457456,-0.157923894397,9.41352952021
6115117,-0.01337712873,-0.0846512775348,-0.00113657341046,0.996320190421,0.087297988267,0.115373038927,-0.0314967778838,1.62650094054,-0.255165847868,9.49919108249
6115195,-0.0181685025041,-0.0899223892761,-0.001640676032,0.995781691741,0.101333150028,0.130097502145,-0.0397568797419,1.72959524694,-0.346551002862,9.49216949935
6115275,-0.0186739409107,-0.09154348855,-0.0017169904042,0.995624490247,0.107200106716,0.141912010506,-0.0404560402422,1.75984836887,-0.355892264315,9.48244988564
6115355,-0.0153488089246,-0.0915182033302,-0.00141078420882,0.995684107642,0.11667994159,0.157088826691,-0.0370443259892,1.77512720003,-0.2951776352,9.57023140233
6115435,-0.015028360099,-0.0901657197416,-0.00136074107328,0.995812452101,0.123219222637,0.170877507078,-0.0358486775603,1.78405507856,-0.2949013028,9.76655241196
6115517,-0.011475076162,-0.0880131373791,-0.00101395985793,0.996052700494,0.114372089421,0.194049867461,-0.0300230077654,1.73051444484,-0.223867134219,9.71315959903
6115595,-0.00974072879982,-0.0858114854691,-0.000839001403217,0.996263420608,0.0979958678934,0.216892774982,-0.0197165649051,1.65529443473,-0.186513876723,9.5357958705
6115676,-0.00780908613853,-0.0829773403151,-0.000650239625464,0.996520625154,0.0864673747311,0.233152659863,-0.0118299389431,1.5943606977,-0.149018451766,9.50623150668
6115755,-0.0034772214591,-0.0805420501616,-0.00028097709559,0.996745106905,0.0786988987107,0.250145321836,-0.0100777937961,1.55971581681,-0.0669055754542,9.58785225728
6115839,0.000995317436485,-0.078236593815,7.81097053475e-05,0.996934320119,0.0736121230371,0.264172129574,-0.00945219676934,1.52097237583,0.0192328558994,9.63083920349
6115915,0.005151108427,-0.0754475915655,0.000389754831552,0.997136387412,0.0675802272027,0.278547875076,-0.0107795987991,1.45367300069,0.0986886539693,9.55056823767
6115995,0.00830090223926,-0.0704112162731,0.00058595126331,0.997483339363,0.0614069493332,0.292281603116,-0.0120017300785,1.35176239295,0.158572561278,9.52586883445
6116075,0.00983513194214,-0.0659402947129,0.00064997777276,0.997774887057,0.0568516024887,0.303927360431,-0.0148634591534,1.26787111253,0.188277981347,9.54863815858
6116155,0.0113089362209,-0.0613176838802,0.000694789844226,0.998053989959,0.0519899440746,0.317300165742,-0.0212630872744,1.18042621854,0.216875140859,9.56804583704
6116235,0.0125451096293,-0.057460188052,0.000722094510461,0.998268714121,0.0465188086574,0.326175229052,-0.0251028641471,1.10641146721,0.240737201215,9.57609914163
6116316,0.0136233221793,-0.0540836739458,0.000737948155035,0.99844319655,0.0368507764851,0.329797506792,-0.0257039700248,1.03853944014,0.260800521412,9.55459490612
6116395,0.0133457910545,-0.0505778815943,0.000675927374944,0.998630717972,0.0259416764442,0.329416733067,-0.0235104931827,0.972198266134,0.255839681744,9.56970452424
6116475,0.0131028317175,-0.0482643582912,0.000633192236322,0.998748450105,0.0172677661124,0.328336888709,-0.0204916468315,0.926647477747,0.250947816615,9.56201088349
6116555,0.0132310004544,-0.044893536193,0.000594638134193,0.998903978088,0.0103606596674,0.323857771541,-0.0122949880989,0.86531934114,0.25447704202,9.60408163141
6116636,0.0129915347231,-0.0410447668095,0.00053372943988,0.999072701196,0.00621639580046,0.319467540994,-0.00269440218327,0.790933493112,0.249890812614,9.60657916439
6116716,0.0118925871991,-0.0378998204209,0.000451082971726,0.999210671733,0.00372983748028,0.315982022544,0.00476870961197,0.730739673504,0.228943142354,9.61621796983
6116795,0.01076155878,-0.0350637345421,0.000377594537287,0.999327063976,-0.00499882855669,0.309208120797,0.010949336935,0.675469768458,0.207037153723,9.61146676578
6116878,0.00963413570457,-0.032523869406,0.000313519809697,0.999424475913,-0.014067238732,0.30258963938,0.0146577133288,0.626984934805,0.185513854734,9.62130531216
6116955,0.00904854253981,-0.0283638104403,0.000256764974965,0.999556677836,-0.0246165655748,0.299469930653,0.00879462799725,0.549770581244,0.175233497166,9.67772609501
6117035,0.00836595865903,-0.0253796498193,0.000212400958956,0.999642855722,-0.0322232318648,0.297172415355,0.00144556624519,0.493625742301,0.162600938144,9.71373334621
6117115,0.00881952430946,-0.0204537995799,0.000180437552425,0.999751881977,-0.0401927521305,0.286428724825,-0.0102006018509,0.40080205793,0.172738495015,9.78968607462
6117197,0.00974360597291,-0.0146366728069,0.000142636025134,0.999845392852,-0.0471029145973,0.268063188785,-0.0222965834461,0.285252805803,0.189834356775,9.73901080493
6117275,0.00927998548935,-0.0110616249426,0.000102662421467,0.999895750458,-0.0516747021388,0.25065851624,-0.032108312772,0.214007893198,0.179501739553,9.66958015605
6117355,0.00816439262148,-0.00896327249002,7.31850551878e-05,0.99992649584,-0.0569719150324,0.224465180438,-0.038421040429,0.172936886798,0.157500438263,9.64420233802
6117435,0.00714132882747,-0.00686480831569,4.90262589683e-05,0.999950935509,-0.0618530030145,0.201086757851,-0.0409316068388,0.132971392333,0.138314153339,9.68308460471
6117516,0.00554857492752,-0.00639293472303,3.54729482926e-05,0.99996417058,-0.0647816558037,0.173863312393,-0.0411608765003,0.124314986279,0.107888189269,9.72149743519
6117595,0.00352206241693,-0.00699141121424,2.46249412647e-05,0.99996935685,-0.0686672977846,0.147738373705,-0.0366158476211,0.134683453437,0.0678453757195,9.63105997479
6117676,0.00208910497273,-0.00941156033522,1.96626512639e-05,0.999953527813,-0.071850063096,0.126529439693,-0.0309089998634,0.180169440959,0.0399889649337,9.57033315406
6117755,-0.000691518171542,-0.0113473034565,-7.84737365008e-06,0.999935378135,-0.0686514415453,0.103161827749,-0.0236536806556,0.219192621606,-0.0133561669382,9.65648018663
6117836,-0.00234123945885,-0.0152360717119,-3.56755311614e-05,0.999881182663,-0.0650295083691,0.0853100500301,-0.0171720388236,0.295278966519,-0.0453632460614,9.68662059122
6117916,-0.00455222537095,-0.0205558978966,-9.35958266402e-05,0.999778337206,-0.0649847987706,0.0656594921078,-0.0103032232941,0.395518571317,-0.0875518294728,9.61396459106
6117995,-0.00739438428966,-0.0257844524136,-0.000190728781763,0.999640159616,-0.059849692274,0.0500379468012,-0.00405348366918,0.496603182585,-0.14231365994,9.61897328467
6118075,-0.00891657265684,-0.0292081267389,-0.000260557922185,0.999533547298,-0.0529374178229,0.0423677798631,-0.000729329955658,0.564915394659,-0.172297716227,9.65621558457
6118155,-0.00979483108788,-0.0336113062075,-0.00032941902436,0.999386928503,-0.0492157432137,0.0386170598232,-0.000437597973395,0.646364729959,-0.188133368506,9.59667926773
6118234,-0.0110436858649,-0.0362403777816,-0.000400514918341,0.999281998041,-0.0478341185711,0.0363666277992,-0.000262558784037,0.696670852136,-0.211999969834,9.58992731772
6118315,-0.0130070036691,-0.0391675893984,-0.00050988747155,0.999147865839,-0.0423225531094,0.038847579138,-0.00271167563919,0.754148424367,-0.250022527066,9.60095961817
6118395,-0.0137589460574,-0.0404764486291,-0.000557422980395,0.999085600832,-0.0360357834022,0.0458701207403,-0.00332976562936,0.784325404718,-0.266132296757,9.66025143497
6118475,-0.0144366380778,-0.0419419924514,-0.00060609803356,0.999015558135,-0.031412341455,0.0513607158861,-0.00455199974639,0.815360281893,-0.28010772156,9.68936218056
6118555,-0.0154585648917,-0.0429037590235,-0.000663921427377,0.998959388284,-0.0231043054876,0.0584862835267,-0.00783948058538,0.822967880562,-0.295915001589,9.55862754515
6118635,-0.0165485320757,-0.0435059315394,-0.000720740699947,0.998915842571,-0.0138625832926,0.0670185247257,-0.0102376591502,0.829208380925,-0.31473675608,9.49622791503
6118715,-0.0161423211889,-0.0416700965921,-0.000673324877216,0.999000788363,-0.00831754997553,0.077671840244,-0.0103994961048,0.803025160391,-0.310467497984,9.60411617773
6118795,-0.0157938029565,-0.0400945189652,-0.000633833852466,0.999070860145,-0.00499052998532,0.0857665898009,-0.0104965982775,0.778217261762,-0.305990581798,9.67531347983
6118876,-0.0146897098762,-0.0388120609205,-0.000570629578094,0.999138384175,-1.44875609576e-05,0.0944546500882,-0.00970347945818,0.746333690797,-0.281996037311,9.58778729078
6118956,-0.0127723904589,-0.0366907403277,-0.000468982575065,0.999244932772,0.0025454478322,0.105627147121,-0.00582208767491,0.703740371949,-0.244614974682,9.56687503926
6119035,-0.0113069203992,-0.0339962833543,-0.000384640238395,0.999357923029,0.00450709912955,0.11488478571,-0.00349325260495,0.657354826197,-0.218355614448,9.64818039343
6119115,-0.0105722150769,-0.0306567767231,-0.000324280607307,0.99947400424,0.0086639203382,0.120013678801,-0.00209595156297,0.595046994839,-0.204994199967,9.68858390012
6119196,-0.00935019391083,-0.0280022977145,-0.000261941095462,0.999564093284,0.0124350832478,0.123091014656,-0.00125757093778,0.541621144902,-0.18069677999,9.65751994579
6119275,-0.00711729381486,-0.0256458310903,-0.000182593600912,0.999645738317,0.0155491611164,0.124511726108,-0.000754542562668,0.492806223318,-0.136669647584,9.5972224643
6119355,-0.00513677242067,-0.0229452949693,-0.00011789735484,0.999723518333,0.0174176078376,0.121958632487,-0.000452725537601,0.444603077252,-0.0994794606695,9.68003579791
6119435,-0.00488026383838,-0.0202861946066,-9.90235395732e-05,0.999782298067,0.0189643659318,0.118298326007,-0.00240008562987,0.395569895668,-0.095121860972,9.74313132738
6119516,-0.00426721302323,-0.0171352344641,-7.31310988116e-05,0.999844072486,0.0198924207883,0.110142481259,-0.00356850168523,0.332152323143,-0.0826910743469,9.68737536015
6119595,-0.00386096342882,-0.0146525304322,-5.6579380019e-05,0.999885189965,0.0204492537022,0.101417763857,-0.00426955131845,0.282849031825,-0.0745143418738,9.64841511599
6119675,-0.00171404015092,-0.0127885968733,-2.19219934501e-05,0.999916753223,0.021209043512,0.0897975824934,-0.00511587115984,0.246084452054,-0.0329770169895,9.61881404518
6119755,-0.00011917749824,-0.0116378659283,-1.38706569125e-06,0.999932270642,0.0191107770292,0.0781428829994,-0.00306952269591,0.225462225188,-0.00230853807455,9.68461104063
6119836,0.00108385113087,-0.0114620842677,1.24240164511e-05,0.999933720672,0.0161490568936,0.0673188527498,-0.00184171361754,0.223383956206,0.0211203727607,9.74252459069
6119915,0.00110170529598,-0.0124339517929,1.36996178991e-05,0.999922088415,0.0130949546278,0.0531620134937,0.00187480225971,0.240332927435,0.021291349633,9.66211162087
6119995,0.000428494664134,-0.0136576257217,5.85276616978e-06,0.999906638451,0.0129652535143,0.0412623894484,0.00410471178606,0.262233898307,0.00822582662551,9.59758326769
6120074,0.000578159088023,-0.0149197140735,8.62692994618e-06,0.999888527682,0.0158672632763,0.0285886442222,0.00459127737895,0.288063749628,0.0111604202917,9.65056417936
6120155,0.00072959623704,-0.0168208905131,1.22741982584e-05,0.999858252544,0.0150543287648,0.0171531865333,0.00275476642737,0.325588315695,0.0141182773215,9.67397302056
6120235,0.000389189232058,-0.0190048092757,7.39780378831e-06,0.999819316527,0.012863807812,0.01029191192,0.00165285985642,0.36701724845,0.00751328572884,9.65066877938
6120315,0.000507742726712,-0.0207190396686,1.05222017739e-05,0.999785208673,0.00771828468722,0.006175147152,0.00354585628262,0.399057213084,0.00977521508965,9.62399696587
6120395,0.000441460840424,-0.0218662612245,9.65540756094e-06,0.999760807213,0.00292821056649,0.0037050882912,0.00468165413835,0.421154233856,0.00849875087996,9.62331676839
6120475,0.000338735845115,-0.0237920055138,8.06148752145e-06,0.999716872753,-0.00122290409034,0.00222305297472,0.00280899248301,0.459312143585,0.00653577152407,9.64445646484
6120555,-0.000131868234396,-0.0255981013633,-3.37668294868e-06,0.999672306211,-0.000733742454205,0.00133383178483,0.0016853954898,0.493938477557,-0.00254288156798,9.63846550976
6120635,-0.000315393902433,-0.0269033042337,-8.48821092095e-06,0.999637990813,-0.000440245472523,0.00250305931675,0.00356537766266,0.518545000597,-0.00607471209508,9.62673065107
6120715,-0.000675484085589,-0.0282623609108,-1.90984084348e-05,0.999600311281,-0.000264147283514,0.00490735608174,0.00469336696637,0.543603981559,-0.0129822137317,9.60556394606
6120795,-0.00138805790355,-0.028641786878,-3.97728142104e-05,0.999588775326,-0.000158488370108,0.00762700432513,0.00281602017982,0.551456765156,-0.0267035213542,9.61489057833
6120875,-0.00201555981708,-0.0284700932573,-5.74065627588e-05,0.999592611024,0.00203335728525,0.0130900038243,0.00168961210789,0.54802814967,-0.038767028584,9.61282511238
6120956,-0.00296058729168,-0.0282144445981,-8.35649605538e-05,0.999597505527,0.00122001437115,0.0193476339541,0.00101376726473,0.543816198884,-0.0570184605586,9.62547220244
6121035,-0.00360532382252,-0.0277640363429,-0.000100137595763,0.999607998117,-0.00097075162316,0.0239535921548,0.000608260358841,0.536740045258,-0.0696452609055,9.65460827141
6121115,-0.00437723798451,-0.026727065862,-0.000117033658457,0.999633177741,-0.00398797146559,0.0292713074441,0.000364956215305,0.515734941462,-0.0844039460941,9.63737398873
6121197,-0.00481528065375,-0.0253751261967,-0.000122229130522,0.999666394905,-0.00622399343251,0.033739006802,0.000218973729183,0.489245509555,-0.0927803168752,9.63038530144
6121275,-0.00451600185698,-0.0232796972336,-0.000105160728644,0.999718785642,-0.00671422648974,0.0372710065397,0.00013138423751,0.450128094307,-0.0872716520392,9.65947149214
6121355,-0.00387326373271,-0.0210655009803,-8.16109631984e-05,0.999770591604,-0.00402853589385,0.0385388262594,7.88305425058e-05,0.406067510881,-0.074629066663,9.63143337502
6121435,-0.0037102651699,-0.0188620073498,-6.99959834772e-05,0.999815209782,-0.00241712153631,0.0380224479068,4.72983255035e-05,0.362871749204,-0.0713530784255,9.61365282409
6121517,-0.00381558555018,-0.017273151091,-6.59175001259e-05,0.999843525364,-0.00145027292178,0.0351584805265,2.83789953021e-05,0.33264472921,-0.0734576283053,9.6242928883
6121595,-0.00392054754402,-0.016759759882,-6.57171709992e-05,0.999851856745,-0.000870163753071,0.0321630299139,1.70273971812e-05,0.323606483522,-0.0756780388972,9.64983054011
6121675,-0.00440601099458,-0.0166697522078,-7.34580318145e-05,0.999851339466,-0.000522098251842,0.0273859291161,1.02164383087e-05,0.322253678932,-0.0851505708969,9.66132240854
6121755,-0.00336609702087,-0.0155568568949,-5.23725243356e-05,0.999873317402,-0.000313258951105,0.0215398382072,0.00256027023176,0.300373021568,-0.0649767121671,9.65026101714
6121838,-0.00286616484893,-0.0145335017119,-4.16599829082e-05,0.999890274326,-0.000187955370663,0.0167551134775,0.00366461244636,0.280301442335,-0.0552665985893,9.64003287982
6121915,-0.00324251019332,-0.0151047683949,-4.89832112557e-05,0.999880657729,-0.000112773222398,0.0100530680865,0.00219876746782,0.291721671065,-0.0626086395735,9.6530496107
6121997,-0.00374577992309,-0.0152209913676,-5.70214897565e-05,0.999877136104,-6.76639334388e-05,0.0060318408519,0.00131926048069,0.293785404983,-0.0722811078164,9.64697327961
6122075,-0.00302974635609,-0.0157099337674,-4.76032077975e-05,0.999871999984,-4.05983600633e-05,0.000213584019441,0.00334569665719,0.303163930978,-0.0584521351488,9.64500342211
6122155,-0.00270172586331,-0.0166261079362,-4.49255596072e-05,0.999858125533,-2.4359016038e-05,-0.00498013032588,0.00200741799431,0.32052263471,-0.0520701128764,9.63496296147
6122235,-0.0026022250421,-0.0183437185624,-4.77426787275e-05,0.999828352336,-1.46154096228e-05,-0.00937342911746,0.00120445079659,0.35368277272,-0.0501562608411,9.63540302957
6122316,-0.00230604664802,-0.0199281645429,-4.59645272273e-05,0.999798753897,-8.76924577366e-06,-0.0132864785768,0.000722670477952,0.384352762998,-0.0444589664656,9.63758243175
6122395,-0.00229207880624,-0.0212959922537,-4.88232932479e-05,0.999770586037,-5.2615474642e-06,-0.0156343082524,0.000433602286771,0.410416202476,-0.0441530519985,9.62931326643
6122475,-0.00248318034162,-0.0224080408146,-5.56573532692e-05,0.999745822909,-3.15692847852e-06,-0.0153402458119,0.000260161372063,0.431560929982,-0.0478002259745,9.62219698573
6122555,-0.00270558986405,-0.0241541623909,-6.53705685599e-05,0.999704582339,-1.89415708711e-06,-0.0134610481018,0.000156096823238,0.463640799932,-0.0519038916882,9.58895737723
6122636,-0.00282831067854,-0.0262530589091,-7.42777056186e-05,0.999651325233,0.00212731381306,-0.0110564592913,9.36580939426e-05,0.502760595682,-0.0541266709504,9.56518288947
6122715,-0.00326032029391,-0.0268581466988,-8.75982274459e-05,0.999633934295,0.00425621871807,-0.00663387557477,5.61948563656e-05,0.516416246325,-0.0626429434882,9.60311179301
6122796,-0.00277921290648,-0.0270936977807,-7.53270984909e-05,0.999629032112,0.00468218153815,-0.00185187503755,3.37169138193e-05,0.523173115715,-0.053626917216,9.64406506775
6122876,-0.00245138860425,-0.0270672132937,-6.6376777274e-05,0.999630607901,0.00280930892289,0.00442284577647,2.02301482916e-05,0.522199413863,-0.0472596207886,9.63559704968
6122955,-0.00214269449585,-0.0261598532682,-5.60718918041e-05,0.999655474548,0.00168558535373,0.00946474844928,1.2138088975e-05,0.504376940798,-0.041284461438,9.63027681868
6123036,-0.00229011271454,-0.0249638414139,-5.7187983094e-05,0.999685729985,0.00101135121224,0.0133412701759,7.28285338498e-06,0.481712448659,-0.0441637103101,9.63905568837
6123115,-0.00240116832918,-0.0232359204279,-5.58085850313e-05,0.999727124408,0.000606810727344,0.0173699434577,4.36971203099e-06,0.448960140094,-0.0463700999653,9.65294213617
6123197,-0.00265965593455,-0.0221414302355,-5.89032350304e-05,0.99975130899,0.000364086436407,0.0197871474268,2.62182721859e-06,0.42715397346,-0.0512852362487,9.63876850924
6123276,-0.00168474183331,-0.0200745024514,-3.38272187273e-05,0.999797066835,0.000218451861844,0.0199603996238,1.57309633116e-06,0.386776374555,-0.0324470829113,9.62763071126
6123360,-0.00155649148436,-0.0180450046138,-2.80915040425e-05,0.999835963723,0.000131071117106,0.0179359006348,9.43857798693e-07,0.347945185084,-0.0300027370515,9.63627092309
6123436,-0.0011829669699,-0.0167101799943,-1.9770365267e-05,0.999859675196,7.86426702638e-05,0.0154441310569,5.66314679216e-07,0.322012849576,-0.0227900455512,9.63115998305
6123516,-0.00162862105453,-0.0160939047585,-2.62143020708e-05,0.999869158008,4.71856021583e-05,0.0118206190029,3.3978880753e-07,0.310284170927,-0.0313911196159,9.63599428451
6123595,-0.00168569601757,-0.0160689482615,-2.70908984073e-05,0.999869464779,2.8311361295e-05,0.00879513164761,2.03873284518e-07,0.30971130822,-0.0324816212324,9.6331487814
6123675,-0.00192146389451,-0.0161757534775,-3.10852507517e-05,0.999867317202,-0.00168577342907,0.00357431874272,0.00340564281567,0.311282951924,-0.0369666448586,9.61803395024
6123756,-0.00243725191147,-0.0166401684655,-4.05620190263e-05,0.999858571475,-0.00101146405744,-0.00296368949191,0.00715166642694,0.319887383459,-0.0468402640148,9.60776795071
6123835,-0.00225611683405,-0.0175408105433,-3.9580308233e-05,0.999843601938,-0.000606878434466,-0.00816356461708,0.00939928059371,0.337739311179,-0.0434270490339,9.6226773256
6123915,-0.00297271082289,-0.0183206044984,-5.44712423325e-05,0.999827742901,-0.000364127060679,-0.0121348698151,0.00861939878646,0.352520610633,-0.0571808510023,9.61582121958
6123996,-0.00335412152118,-0.0195025272213,-6.54266581618e-05,0.999804179337,-0.000218476236408,-0.0145176529339,0.00517163927188,0.375036339769,-0.0644754515194,9.60931335431
6124075,-0.00385252627779,-0.0211441780261,-8.14773218416e-05,0.999769010891,-0.000131085741845,-0.0159473228052,0.00310298356313,0.406981130033,-0.0741194554819,9.61714022328
6124156,-0.00381669993651,-0.0228810532455,-8.7353620885e-05,0.999730905081,-7.86514451067e-05,-0.0155280545436,0.00186179013788,0.440513214153,-0.0734415133771,9.61824504217
6124235,-0.00414303064434,-0.02389473341,-9.90257371808e-05,0.999705890353,-4.7190867064e-05,-0.0144251134637,0.00111707408273,0.460153624292,-0.0797385127626,9.62010503433
6124316,-0.00394334012217,-0.0241958377244,-9.54411019351e-05,0.999699456035,-2.83145202384e-05,-0.0124862786314,0.000670244449635,0.46571294606,-0.0758552670814,9.61499610532
6124395,-0.00396983031411,-0.0246066240207,-9.77144794876e-05,0.999689324217,-1.69887121431e-05,-0.0108972876705,0.00253059697709,0.473836942441,-0.0763983616648,9.61911335289
6124475,-0.00381639487645,-0.0242954002413,-9.27488943629e-05,0.999697534285,-1.01932272858e-05,-0.00824113284816,0.00407249855503,0.468895113462,-0.0736117562567,9.64097673488
6124555,-0.00320777969918,-0.0232702651729,-7.46664875676e-05,0.999724061596,-6.1159363715e-06,-0.0049446797089,0.00414625937886,0.449170604454,-0.0618841460392,9.64308143643
6124636,-0.00293417569472,-0.0225170217993,-6.60859382249e-05,0.999742151745,-3.6695618229e-06,-0.00296680782534,0.00248775562732,0.433984016725,-0.0565235210708,9.62926078691
6124715,-0.00239786373598,-0.0225120182338,-5.3994591212e-05,0.999743695339,-2.20173709374e-06,-7.73244493548e-05,0.00149265337639,0.433251769899,-0.0461245411093,9.61522231321
6124795,-0.00192383491488,-0.0221253478198,-4.25760179037e-05,0.999753352598,-1.32104225624e-06,0.00165636557624,-0.000807168220013,0.425869236988,-0.0370121111402,9.61685487596
6124875,-0.00152616620254,-0.0208313894924,-3.17990999597e-05,0.999781837711,-7.92625353746e-07,0.000993819345741,-0.000484300932008,0.401328423296,-0.0293898716646,9.62645353959
6124955,-0.00125064119653,-0.0194228916954,-2.42956707088e-05,0.999810575351,-4.75575212248e-07,0.000596291607445,-0.000290580559205,0.374393506614,-0.0240982674812,9.63245215793
6125035,-0.000961578349572,-0.018857435093,-1.81361346204e-05,0.999821720198,-2.85345127349e-07,0.000357774964467,-0.000174348335523,0.363499800258,-0.018529103311,9.63293886678
6125115,-0.00116079240557,-0.0188517152079,-2.1886832094e-05,0.999821616548,-1.71207076409e-07,-0.00148809526717,-0.000104609001314,0.363427920926,-0.0223702097893,9.63394915259
6125196,-0.00124291295104,-0.0186851616727,-2.32281026154e-05,0.999824644306,-0.00170286297009,-0.00302130746761,0.00163999484506,0.360272331169,-0.0239566131783,9.63551300474
6125276,-0.00116715507095,-0.0186963061508,-2.18253182792e-05,0.999824527309,-0.00315016808937,-0.00521830497226,0.000983996907036,0.360773178975,-0.0225142535515,9.64315508067
6125355,-0.0017395720267,-0.0190352599488,-3.31192566443e-05,0.999817299146,-0.00444424122239,-0.0082392637209,0.000590398144222,0.368016872473,-0.0336198460762,9.6613872757
6125435,-0.00179796891888,-0.0189228676425,-3.40288758984e-05,0.999819329294,-0.00564637516367,-0.0104775290315,0.000354238886533,0.366138164255,-0.0347765377727,9.66921413056
6125517,-0.0022575105634,-0.0202993120886,-4.58354728421e-05,0.99979139798,-0.0067933455899,-0.0126718683409,0.00021254333192,0.39230483825,-0.0436108384351,9.65691141168
6125595,-0.00245892545125,-0.0213706027165,-5.25608816553e-05,0.999768597358,-0.00748152784564,-0.0144141619879,0.000127525999152,0.412793245968,-0.0474748978364,9.65120572152
6125674,-0.00288436167654,-0.0216865629628,-6.25668661021e-05,0.999760656122,-0.00661736701469,-0.0158852282376,7.65155994911e-05,0.41957962678,-0.0557788376276,9.66669650054
6125755,-0.00367814743414,-0.0209909838881,-7.72254717306e-05,0.999772896143,-0.00397042020881,-0.0167678679874,4.59093596947e-05,0.405694942816,-0.071056268641,9.65683735467
6125836,-0.00420095980017,-0.0204038615335,-8.57344072973e-05,0.999782989964,-0.00238225212529,-0.0172974518373,2.75456158168e-05,0.393293989615,-0.0809409877471,9.63128941353
6125915,-0.00409545711203,-0.0204611342511,-8.38159480921e-05,0.99978225739,-0.00142935127517,-0.0184665822702,-0.00168623287636,0.394711963838,-0.0789709537323,9.63894498479
6125995,-0.00360426622771,-0.0201469986608,-7.26303607971e-05,0.999790529278,-0.000857610765104,-0.0200194406528,-0.00101173972581,0.388140723224,-0.0694092275128,9.62653949576
6126075,-0.00432652607845,-0.0192004041933,-8.30871442189e-05,0.999806290612,-0.000514566459062,-0.0213768457438,-0.000607043835489,0.369832768896,-0.0833046453944,9.62508170649
6126155,-0.00413097573712,-0.0181657688833,-7.50553762086e-05,0.999826452064,-0.000308739875437,-0.0230426689214,-0.000364226301293,0.350468290488,-0.0796708878226,9.64120586471
6126235,-0.00478863893493,-0.0172055236241,-8.24041835151e-05,0.999840503332,-0.000185243925262,-0.0265963031967,-0.00192129602662,0.333582359791,-0.0928135239045,9.68918758621
6126316,-0.00477884979525,-0.0157402475099,-7.52304579014e-05,0.999864691617,-0.000111146355157,-0.032559694315,-0.00115277761597,0.305733709087,-0.0927982400751,9.70768155197
6126395,-0.00439541772615,-0.0137321775151,-6.036493161e-05,0.999896046577,0.00206176249422,-0.0395432494777,-0.000691666569585,0.266758443226,-0.085367044631,9.70967996512
6126475,-0.00478078948722,-0.0106988943611,-5.11526740749e-05,0.99993133519,0.00634533823407,-0.0509701136202,-0.000414999941751,0.208417939471,-0.0931187558313,9.73793349177
6126556,-0.00506896852313,-0.00882892724075,-4.47558737291e-05,0.999948175457,0.0106182439238,-0.0616574426589,-0.00024899996505,0.171977116221,-0.0987274632156,9.7376473558
6126635,-0.00494539375304,-0.00492759682255,-2.43695004201e-05,0.999975630341,0.0148847475835,-0.0787120916186,-0.00014939997903,0.0962430849184,-0.0965860238278,9.76476957315
6126715,-0.00397130097332,-0.00141602829541,-5.62352453106e-06,0.999991111761,0.0153161994721,-0.100012822592,-0.00392085054058,0.0275789100331,-0.0773446477439,9.73770785351
6126795,-0.00359555029378,0.000975256432692,3.50660788747e-06,0.999993060416,0.0134466202979,-0.118752922037,-0.00873786124628,-0.0188868385505,-0.0696305447499,9.68268475483
6126876,-0.00342986505199,0.00255020334637,8.74693322622e-06,0.999990866164,0.00977073242456,-0.144470443794,-0.0141822080385,-0.0493999095268,-0.0664386039495,9.68510508019
6126955,-0.00286468497886,0.00352133935989,1.00876319049e-05,0.999989696771,0.00756519970058,-0.167563377954,-0.0165974359909,-0.0684260126106,-0.0556648933268,9.7155271155
6127035,-0.00190101201181,0.00303272801161,5.76528930921e-06,0.99999359432,0.00666757012766,-0.197169670724,-0.0142153622091,-0.0590121200175,-0.0369902384863,9.72899193336
6127115,-0.00186018332075,0.00147984278125,2.75278663596e-06,0.999997174884,0.00783175262975,-0.232386738906,-0.00852921732548,-0.0287035073621,-0.0360805127207,9.69804533702
6127196,-0.00195734265534,-7.4965547451e-05,-1.46733545201e-07,0.999998081593,0.0098073323154,-0.261179400922,-0.00511753039529,0.00145266853197,-0.0379288789215,9.68881476569
6127275,-0.00207004993622,-0.00372783577584,-7.71687636416e-06,0.999990908996,0.0114183701882,-0.291651390037,0.00161207243891,0.0724582307579,-0.040234999472,9.71823176713
6127355,-0.00189179381868,-0.00627883036626,-1.18785078823e-05,0.999978498401,0.011533612789,-0.315894244366,0.00607552420089,0.122244173074,-0.036830268482,9.73396660666
6127435,-0.00201766676417,-0.00950851684044,-1.91859248011e-05,0.999952757264,0.00989999810365,-0.340230828377,0.00662514495077,0.18539514154,-0.0393364130423,9.74747765321
6127518,-0.00149306979318,-0.0131455189731,-1.96288952347e-05,0.999912479014,0.00849413923096,-0.363346580013,0.00397508697046,0.256325705529,-0.0291085116438,9.74696515516
6127595,-0.00213204334616,-0.016693639199,-3.55966036489e-05,0.999858377739,0.00765062390735,-0.382750001794,-0.00102046830942,0.326177942849,-0.0416465437538,9.76533242928
6127674,-0.00266362776217,-0.0200510973527,-5.34195888479e-05,0.999795406935,0.00799589483611,-0.407588446767,-0.00657194184612,0.390115940514,-0.0518029848461,9.72200441606
6127754,-0.0031585694985,-0.02136769536,-6.7507100695e-05,0.999766693022,0.00990581763921,-0.428451174612,-0.0103285160296,0.412916428322,-0.0610093116596,9.65530617991
6127838,-0.00323589400167,-0.0233922621979,-7.57159963228e-05,0.999721123777,0.0140316017513,-0.45288813304,-0.0125824605397,0.450059897276,-0.0622235447594,9.61169593573
6127915,-0.00326132736399,-0.0267956920153,-8.74213793361e-05,0.999635607104,0.0152300020342,-0.473509968957,-0.0118063769384,0.517596390026,-0.0629520846193,9.64753961222
6127995,-0.0030459175837,-0.0300296512873,-9.1509537999e-05,0.999544363225,0.0146719720195,-0.488011520814,-0.00921227647037,0.580623781281,-0.058840225381,9.65420176782
6128074,-0.00211140678085,-0.0317408169972,-6.70517110459e-05,0.999493900933,0.0143371540107,-0.502672112789,-0.00552736588222,0.617721955536,-0.041050219213,9.71589932119
6128158,-0.001020276266,-0.0329347239385,-3.36207737967e-05,0.999456983499,0.012859193021,-0.51317122822,-0.00118796922202,0.641177960919,-0.0198417282075,9.71820192914
6128235,0.000273735966913,-0.0327249436912,8.9627949523e-06,0.999464358068,0.00771551581263,-0.519045007417,0.00907808988041,0.638252732362,0.00533321502865,9.73610348536
6128314,0.00105980697787,-0.0336504784239,3.56832406809e-05,0.999433099731,0.00462930948758,-0.525549105366,0.025454286817,0.649665704359,0.0204381809703,9.63671114273
6128394,0.0017334027164,-0.0325862077956,5.65151197193e-05,0.999467423773,0.00277758569255,-0.532857084627,0.0391112155321,0.622755244148,0.0330924630255,9.54020503159
6128474,0.00249931157812,-0.0338683774879,8.46964831829e-05,0.999423173273,-0.00131327901471,-0.538518942367,0.0404943317777,0.639648950932,0.0471493767411,9.42675588638
6128555,0.00338327221246,-0.0377908846163,0.000127948981541,0.999279933821,-0.00674762826929,-0.544044507319,0.0323847102344,0.710119056839,0.063484390449,9.37496697055
6128634,0.0041479137001,-0.0436676000548,0.00018130394372,0.999037488109,-0.0142651384367,-0.55885347795,0.0121940950958,0.828536733176,0.078552642326,9.45929414107
6128715,0.00612639804834,-0.0504491897272,0.000309471719793,0.998707790462,-0.0213297849059,-0.572847141066,-0.0101368354625,0.970216287952,0.117521114204,9.5781251907
6128795,0.00598718283821,-0.0562586443167,0.000337371184328,0.998398219531,-0.0272713330332,-0.583797479304,-0.0273666043506,1.08443328107,0.115044819401,9.59124472013
6128875,0.00487061625476,-0.066635030093,0.000325280507979,0.997765475477,-0.0282821215409,-0.600158553661,-0.0394072259293,1.2808138456,0.0932083284084,9.54596516094
6128955,0.00329899730276,-0.0746298474599,0.000246893531175,0.997205817035,-0.0254830741538,-0.613380718766,-0.0449288386307,1.43551288988,0.0631076020255,9.53675393787
6129035,0.00255384537924,-0.0809680819409,0.00020746180561,0.996713401405,-0.0238036457215,-0.619611257584,-0.0380252447764,1.57501924882,0.0493567291841,9.6301077326
6129114,0.00205578853814,-0.0860512640251,0.000177562211329,0.99628857374,-0.0317354799528,-0.617389920014,-0.0194096263742,1.7030157949,0.0403879449811,9.78500053799
6129195,0.00126229414311,-0.09025380979,0.000114393812145,0.995917990271,-0.0394744109219,-0.610523146673,-0.00228059447233,1.81572674745,0.0251904476527,9.93563648124
6129275,-0.00100810019201,-0.0966128971524,-9.78532850976e-05,0.99532151703,-0.0462462198106,-0.584267199472,0.0173620060209,1.98869819202,-0.0205593361447,10.1474040714
6129354,-0.0030342629238,-0.101396073464,-0.000309257663837,0.994841461688,-0.0507349952053,-0.555317239247,0.0325530868086,2.13007002483,-0.0630926768821,10.3407840114
6129435,-0.00376830659931,-0.10345131258,-0.000391942049719,0.99462730315,-0.0538539505036,-0.520493970591,0.0454989458343,2.21297776319,-0.079754135182,10.5228919413
6129518,-0.00460878233237,-0.106465196238,-0.000493485003683,0.994305625846,-0.0548739435596,-0.480018266571,0.0528407711883,2.27589051534,-0.0974124554744,10.5052640112
6129596,-0.00548583634617,-0.111626030035,-0.000616222798012,0.993734952232,-0.0529317990245,-0.439556621823,0.0551174160934,2.36343756115,-0.114711212298,10.3867087583
6129676,-0.00692099463781,-0.119647905794,-0.000834094741789,0.992791913121,-0.0432527110742,-0.381224430057,0.0513751222989,2.49617154426,-0.142328718346,10.2047240697
6129754,-0.00844112664001,-0.126426048974,-0.00107585014077,0.991939536498,-0.0340397378123,-0.332603033031,0.0478526758378,2.5971203289,-0.170630810109,10.0215524252
6129837,-0.00848631110824,-0.128809515167,-0.00110234153944,0.991632429971,-0.0272348836708,-0.280017241435,0.0423336874695,2.62967744026,-0.170373813214,9.94995666508
6129915,-0.00869444383459,-0.131180387927,-0.00115052741427,0.991319720754,-0.0240033513088,-0.236120754695,0.0351910838953,2.69781400078,-0.175726278895,10.0135411829
6129994,-0.00936620972333,-0.13439930272,-0.00127039529607,0.990882176467,-0.0216387418301,-0.205951652098,0.0300541416279,2.7724541805,-0.189711665775,10.0303834988
6130077,-0.00996466953069,-0.135787735753,-0.00136579974481,0.990686898455,-0.0210713562659,-0.168694137774,0.0273976663289,2.77701570044,-0.20001825923,9.93801705728
6130154,-0.0111337057633,-0.138828660444,-0.00156089210015,0.9902525977,-0.01860247462,-0.132291857151,0.0245267109651,2.80465230967,-0.220567425265,9.80358853759
6130234,-0.0137477976737,-0.139817455776,-0.00194144128737,0.990079950269,-0.00562751397298,-0.0793751142905,0.0147160265791,2.78388472931,-0.268331109456,9.65637261963
6130316,-0.015662100464,-0.142366445135,-0.00225299146086,0.989687535507,0.0115226437674,-0.0208065947022,-0.00223832565057,2.81835053363,-0.303693084619,9.58863320312
6130395,-0.0154533470143,-0.14252795444,-0.00222552892137,0.989667632738,0.0235154986574,0.0219969381571,-0.0149650773571,2.82059466344,-0.299531732119,9.58486025879
6130474,-0.015645167302,-0.141961626202,-0.00224402367318,0.98974597235,0.0307112115915,0.0578956193478,-0.0226011283811,2.84229185544,-0.306851147426,9.6994335332
6130554,-0.0149172530625,-0.141496750965,-0.00213244252646,0.98982402361,0.0350286393519,0.0862458690456,-0.0263313788725,2.84405742283,-0.293765124491,9.73992591826
6130635,-0.0135405221311,-0.140070997517,-0.00191570138109,0.990047019087,0.0427273767457,0.124114831876,-0.0260153887986,2.78238867977,-0.26364743529,9.63277967815
6130714,-0.0136358155152,-0.139404813712,-0.00191982835561,0.990139725851,0.0558604204112,0.176208823815,-0.0232716543855,2.74059903062,-0.262815073723,9.53617021168
6130795,-0.0145633147836,-0.141811571872,-0.0020865621767,0.989784337219,0.0650173167949,0.220661610884,-0.0194969634303,2.76436695499,-0.27811738774,9.44492512872
6130875,-0.0147379652534,-0.139572583365,-0.00207758400761,0.990099979799,0.0658288639491,0.261381055153,-0.0116981780582,2.76617786098,-0.286341095486,9.61212057283
6130954,-0.0132491601563,-0.137197645856,-0.00183527424929,0.990453379769,0.0637616518728,0.290921002452,-0.00318769628175,2.73590036283,-0.259193017887,9.68251031855
6131035,-0.0110361246313,-0.133000760752,-0.00148106347935,0.991053383044,0.0620956345655,0.326523953413,0.00532411327581,2.62483883952,-0.21393433124,9.60096394016
6131114,-0.00891246452079,-0.130315916438,-0.0011714734338,0.991431771505,0.0662043049187,0.367893156879,0.0117082691947,2.52899266529,-0.170019707631,9.45243732405
6131195,-0.00574763378263,-0.128305206233,-0.000743610068528,0.991717795446,0.0703722673765,0.40207986031,0.0159644528075,2.46741481792,-0.108715589227,9.37553178286
6131276,-0.0037699131207,-0.12407940775,-0.000471414973584,0.992265018075,0.0694675243595,0.437065344459,0.0163897126679,2.42041246253,-0.0724119585166,9.52643125477
6131354,-0.00303287444551,-0.119553475766,-0.000365211783428,0.992823063151,0.0650934679961,0.463164915685,0.0140907282154,2.35964990672,-0.059009485901,9.65551758465
6131434,-0.0020463698394,-0.112322007272,-0.000231316665721,0.993669726592,0.0603405838708,0.489892600019,0.00845443692922,2.20755243304,-0.0397152545289,9.639834938
6131518,0.00128288588007,-0.10679964039,0.000137800004541,0.994279725242,0.0608943738873,0.519976982648,0.0020928317273,2.06577629381,0.0245337208178,9.50496918301
6131594,0.00404513670622,-0.101338704789,0.000412053597536,0.994843673143,0.0603752677742,0.543987273086,-0.00129844133239,1.95413497184,0.0772088958208,9.49204505717
6131674,0.00710829674912,-0.0947361505996,0.000676472485927,0.995476808505,0.053252763123,0.563501728086,-0.00546165547552,1.86895424605,0.138980941741,9.72945683167
6131754,0.00806874709199,-0.0899127423499,0.000728457693291,0.995916695027,0.0477021901479,0.57350764084,-0.0117907945146,1.80012871828,0.160242438335,9.88698736682
6131837,0.00673940856312,-0.0807846197907,0.000546238421801,0.996708647099,0.0499058171618,0.588024989722,-0.0219736288599,1.61063231886,0.1334950089,9.86969647039
6131914,0.00770661404645,-0.0727314770471,0.000562018719296,0.997321625395,0.0546335138619,0.614614381632,-0.0293603996515,1.43229103438,0.15096537448,9.76666632828
6131994,0.0102907280714,-0.0679261063716,0.000700664735704,0.997637035228,0.0553416815746,0.630568016778,-0.0337924621265,1.33103234768,0.200712501055,9.72711431845
6132075,0.0130519660267,-0.0612750552885,0.000801334357008,0.998035255713,0.0493812312803,0.633329156883,-0.0373030797344,1.21975948063,0.25881235659,9.89276446387
6132154,0.0163247059034,-0.0552930331957,0.000904146734766,0.998336299538,0.0423994406121,0.638391361437,-0.0398351403606,1.10535114736,0.325275731825,9.94283399693
6132235,0.0152327574824,-0.0481330370325,0.000734135266602,0.998724504,0.0284194947975,0.655476456198,-0.039225926429,0.951951408632,0.300510312142,9.8486166506
6132316,0.0160785679544,-0.0404039891806,0.00065025352979,0.999053839631,0.00640944534193,0.658065091948,-0.0316236670252,0.801732465052,0.318451623076,9.8907273512
6132394,0.0166208452178,-0.0371619582122,0.000618175726129,0.999170833354,-0.0140333153762,0.648124641739,-0.0245081710141,0.73889499783,0.329934670135,9.91407841023
6132474,0.0166979356566,-0.0349603647674,0.000584204645499,0.99924902329,-0.0339613929135,0.634072260445,-0.0176847330387,0.679644702556,0.324135229571,9.69561206445
6132555,0.0171704070394,-0.0331848744516,0.00057019604725,0.999301564147,-0.0471953096202,0.629897732284,-0.0106108398232,0.62613801294,0.323528607225,9.4115427709
6132634,0.0176527231197,-0.0289458041935,0.00051126626297,0.999424964864,-0.0627980807505,0.621007664465,-0.00253529334077,0.535615478662,0.326277095976,9.23320032929
6132715,0.0177801464077,-0.0249740665696,0.000444251415029,0.999529872007,-0.0768423341048,0.603328611992,0.00316141467162,0.464063706143,0.33008097072,9.27487478742
6132795,0.0162215706645,-0.0227863200389,0.000369774601927,0.999608677199,-0.0852688861174,0.57313943768,0.00189684880297,0.424484524955,0.301956934483,9.30107656312
6132874,0.0139624568942,-0.020234608196,0.000282610272257,0.999697719593,-0.0822367061572,0.554600243032,0.00113810928178,0.374161377815,0.258028033981,9.2353947721
6132954,0.0122145416996,-0.0177987100005,0.000217453762089,0.999766954649,-0.0791403279966,0.540496895813,0.00068286556907,0.329362859404,0.225924609695,9.24458799119
6133035,0.0104965924895,-0.0155383837598,0.000163128766619,0.999824161323,-0.0785595712847,0.513730214838,-0.00512425145756,0.293625202215,0.198282849313,9.44235831595
6133114,0.0079838710136,-0.0128416847119,0.000102538078267,0.999885662675,-0.0769340470732,0.491284855332,-0.0124397322267,0.244170448477,0.151770272332,9.50308083064
6133196,0.00668779395501,-0.00783763558613,5.24192743275e-05,0.999946919658,-0.0708504518087,0.482074540242,-0.0189574709955,0.147699369916,0.126017507637,9.42052251694
6133276,0.00471870712039,-0.0033202411506,1.566750635e-05,0.99998335464,-0.0706058151417,0.47101438039,-0.020313973888,0.0634805045182,0.0902151347095,9.55893235904
6133355,0.00243443739888,-0.00287685333105,7.0035690756e-06,0.999992898565,-0.0755673138791,0.454161723003,-0.0211278756235,0.0560448151621,0.0474253161772,9.74037995253
6133436,0.0001829369233,-0.000695403008275,1.27214919676e-07,0.999999741474,-0.0845038739819,0.432982186973,-0.0203391464804,0.0135155951519,0.00355549244072,9.71780683749
6133515,-0.00133927421901,0.00157737653053,2.11254424373e-06,0.999997859109,-0.0890144299208,0.422402915662,-0.0160346984414,-0.0301978694713,-0.0256394437934,9.57210303682
6133595,-0.0041771149261,0.00616189236766,2.573964581e-05,0.999972290682,-0.0929978336684,0.413075522446,-0.00749236875754,-0.116999250247,-0.0793088506022,9.49282104206
6133675,-0.00642996076211,0.00739302335633,4.75391321097e-05,0.999951997123,-0.104753057269,0.390451484057,-0.00236697094721,-0.142265020119,-0.123720923154,9.61978914623
6133756,-0.00761973476914,0.00776118778533,5.9141690749e-05,0.999940848305,-0.113083261614,0.371343090225,0.00113395780045,-0.14976303673,-0.147016284361,9.64593119404
6133836,-0.0117625838514,0.00982442477209,0.000115574194643,0.999882547573,-0.112547413422,0.353492703004,0.00536296535635,-0.187301829606,-0.224200424914,9.52778054992
6133915,-0.0155416656686,0.0111232621256,0.000172905605214,0.999817333202,-0.109246074076,0.338951260118,0.00619760964404,-0.210303945664,-0.293734665349,9.44587683581
6133996,-0.0165280620312,0.0120749382368,0.000199617154454,0.999790467641,-0.106839580408,0.317455692543,-0.00181540501258,-0.231527240445,-0.31678043666,9.57845451335
6134075,-0.0194442152018,0.0118370717328,0.000230222233829,0.999740843032,-0.099436023346,0.299024381198,-0.0134342547899,-0.226304704863,-0.371548747836,9.54810726368
6134156,-0.0218877372546,0.010791782409,0.000236278070954,0.999702159927,-0.088608538187,0.28753990433,-0.0212569447793,-0.202820469402,-0.41111349919,9.38409203277
6134236,-0.0231325275304,0.0123254820939,0.000285217559003,0.99965638462,-0.0718954856165,0.275966627534,-0.0272276289573,-0.229431356348,-0.430303366848,9.29262607903
6134317,-0.0234969140022,0.0127011636508,0.000298544676889,0.999643179512,-0.0610162739513,0.263914380718,-0.0329384897714,-0.238215283536,-0.440380766447,9.36248441329
6134395,-0.0238406095527,0.0111598156766,0.000266149043119,0.999653446458,-0.0557658171366,0.243060950662,-0.0372163863828,-0.214276379594,-0.457440533843,9.58492221902
6134475,-0.0256610138692,0.00994870258845,0.00025539054637,0.999621163471,-0.043676051757,0.223737851645,-0.0312693231204,-0.18842086926,-0.485632906731,9.45262851818
6134556,-0.0259045351848,0.00992438970781,0.000257185687066,0.999615123636,-0.0300368416074,0.21086692205,-0.0230184944868,-0.184878571361,-0.482197616353,9.29735610505
6134635,-0.0243732792714,0.0102503651837,0.000249922400054,0.999650344275,-0.0210019353947,0.198036083556,-0.0138110966921,-0.192090579096,-0.456433845691,9.35454852143
6134715,-0.0236576461493,0.00987354897645,0.000233661724798,0.999671333095,-0.0189865121587,0.186080679844,-0.00658389776941,-0.186362136764,-0.446242826946,9.42286163483
6134795,-0.0235765646365,0.00839491665996,0.000197985310818,0.999686766831,-0.0113919072952,0.177204677372,0.00626622281344,-0.158264794266,-0.444198358521,9.41213474701
6134875,-0.0239541290741,0.00877219899774,0.000210198796452,0.999674549062,0.00593555746672,0.174858906318,0.021213026208,-0.164869565036,-0.449914862281,9.38271427838
6134955,-0.0231422439891,0.009402758415,0.000217668855163,0.999687939958,0.0184604866312,0.172174373502,0.0280526579374,-0.177690973641,-0.437064193247,9.43497268568
6135034,-0.0220005734111,0.00823869537034,0.000181306063722,0.999723994809,0.0255497540684,0.163326922767,0.0257710860532,-0.158808180376,-0.423847128009,9.6253027203
6135114,-0.0205718994394,0.00657255425631,0.000135241468549,0.999766762897,0.0340602151454,0.155890002019,0.0239764528611,-0.127127790306,-0.397720956249,9.66025266611
6135195,-0.0208483758036,0.00506971538557,0.000105719669352,0.999769789519,0.0544913340042,0.155259060124,0.022048292823,-0.0961485479626,-0.395213362323,9.47196940851
6135275,-0.0183403619676,0.00465424663546,8.53758532564e-05,0.999820964884,0.0701555258112,0.155731875109,0.0132289756938,-0.0880954898616,-0.347021873595,9.45572520101
6135356,-0.0154385398561,0.00377250518545,5.82493285431e-05,0.999873700174,0.0757228303422,0.153887113793,0.00538324504751,-0.0722503273642,-0.295601484753,9.56999832251
6135435,-0.0128298498431,0.00181970897283,2.33485532705e-05,0.999916038009,0.0752320025077,0.147246286204,0.0032299470285,-0.035688751106,-0.251581142317,9.8020861688
6135517,-0.0114837305114,0.000115350109382,1.32473693285e-06,0.999934053139,0.0774916461757,0.143261789651,0.00364072846295,-0.00225963738236,-0.224929516689,9.79146185265
6135595,-0.0109763886744,0.000133181480961,1.46193978295e-06,0.999939748761,0.0822529528682,0.149384892949,0.00686702775385,-0.0025528832595,-0.210375062308,9.58134070168
6135675,-0.00711962252731,0.00214490410182,1.5271329743e-05,0.999972354682,0.0778730058389,0.161146866095,0.00837711726693,-0.0412754775143,-0.136998944856,9.62046792564
6135755,-0.00463759520125,0.00258230684526,1.19758625493e-05,0.99998591203,0.0705624469452,0.16735266986,0.0105602411592,-0.0499044039402,-0.0896213920598,9.66214019264
6135836,-0.00464846830956,0.00121745646196,5.6593731209e-06,0.999988454688,0.0653247314861,0.169373391873,0.0165527061706,-0.0232388777157,-0.0887281794742,9.54349145323
6135915,-0.00541361045696,0.000233206985299,1.26251030903e-06,0.99998531911,0.0651619326408,0.175694105818,0.0214252553618,-0.00436651998879,-0.101360361054,9.36121125255
6135996,-0.00367234825815,-0.000516121625878,-1.89539138704e-06,0.999993123713,0.0676183937025,0.188000335414,0.0217946445078,0.00959051647352,-0.0682382417787,9.29062919904
6136075,-0.00138007901238,-0.0011169480233,-1.54147895439e-06,0.999998423902,0.0673895100936,0.18601889182,0.0173336873193,0.0213166206751,-0.0263383149403,9.5422879308
6136155,0.00100137874802,-0.00167426684197,1.67657842454e-06,0.999998097032,0.0685292501126,0.181850195233,0.0138057328833,0.0324224260184,0.0193917754401,9.68250926239
6136235,0.00281264739641,-0.00219191053941,6.16511066819e-06,0.999993642232,0.075598445046,0.187437088449,0.0133917204675,0.0417195310505,0.0535335943168,9.51644798785
6136316,0.0031259533849,-0.00188907404117,5.90519678176e-06,0.999993329868,0.0811170321904,0.196748885239,0.0127176229566,0.035326785769,0.0584563748518,9.35001299681
6136396,0.00448786340533,0.000195833637852,-8.78883484508e-07,0.999989910314,0.0805969739239,0.205741483805,0.0110360942656,-0.00370362580425,0.0848732194423,9.45557450463
6136475,0.00489787709991,0.000896933970265,-4.39312681439e-06,0.999987603068,0.074750968165,0.209434282698,0.0125813174199,-0.0173056459415,0.0944984018802,9.64652235781
6136555,0.00397957756493,0.00130296051455,-5.18527789323e-06,0.999991232576,0.0695406044638,0.215481172587,0.0152112115582,-0.0252274378579,0.0770497552395,9.68040647377
6136635,0.00413828575536,0.00211532133679,-8.75389869896e-06,0.999989199907,0.0621574856285,0.231454318303,0.01934328841,-0.0402755801464,0.0787909957218,9.51949587767
6136716,0.00532380831393,0.00352314841223,-1.87569490399e-05,0.999979621862,0.0538964037741,0.244018036163,0.0222482245826,-0.0663032973066,0.100186454123,9.40882373021
6136794,0.00616463004505,0.00522387877858,-3.22043314397e-05,0.999967353162,0.0417030236166,0.249853506633,0.0235654962246,-0.0996370198879,0.117572712317,9.53539309555
6136876,0.00699614628362,0.00588117175737,-4.11472566069e-05,0.999958231159,0.0309814750304,0.255483239222,0.0252072393328,-0.113651749286,0.135187072215,9.66065526895
6136955,0.0079248303942,0.00624714166994,-4.95100591053e-05,0.99994908262,0.02199440551,0.263969359514,0.0261922851977,-0.120384645763,0.152698872967,9.63310132177
6137035,0.00929268687027,0.00687889379207,-6.3927679006e-05,0.999933159118,0.013196643306,0.277149142856,0.0250805524708,-0.129691627302,0.17517696172,9.42407513999
6137115,0.0107307253525,0.00877348519911,-9.41549055465e-05,0.999903929698,0.00962074622943,0.287185463169,0.0222850625273,-0.163287975649,0.199677142608,9.30201131324
6137197,0.0119417254804,0.0129279634403,-0.000154406106762,0.99984510756,0.0100293483523,0.29703846591,0.0133710375164,-0.246413288319,0.227545360272,9.52445692222
6137275,0.0114407520326,0.0140335925694,-0.000160581178809,0.999836057405,0.0128286499948,0.305078717861,0.00419141195668,-0.272107039153,0.221760795265,9.68880948903
6137355,0.0113795200482,0.0138625341007,-0.000157774363836,0.999839142952,0.0149339210417,0.311605629278,-0.00387050374792,-0.267172575543,0.219247736924,9.63060082037
6137436,0.011090844576,0.0165070949609,-0.000183113841203,0.999802218167,0.0166227737313,0.324886957481,-0.00955903329361,-0.309941149085,0.20816309528,9.38139457059
6137517,0.0100306875619,0.0194753292056,-0.000195397837802,0.99976000054,0.0189131555295,0.33796403514,-0.0125464609596,-0.360741410643,0.185710579336,9.253897476
6137595,0.00809890195444,0.0217760061793,-0.000176409359888,0.999730054676,0.0215644547928,0.348790112165,-0.0151902976821,-0.409896340526,0.15236719599,9.40341185596
6137675,0.00508025403606,0.0237310840276,-0.000120595455273,0.999705462687,0.0154928132444,0.355711448442,-0.0142224593468,-0.456388130243,0.0976452419105,9.60708448296
6137755,0.00324161258013,0.024564019708,-7.96514882993e-05,0.999693000145,0.00631585751643,0.361992700516,-0.0119389960998,-0.473269876437,0.0624178678025,9.62442202645
6137836,0.00266878153053,0.0278873413116,-7.44544442686e-05,0.999607507103,-0.00685273702669,0.366187141821,-0.00716339765986,-0.524339772542,0.0501399894804,9.3898977227
6137915,0.00256983832567,0.0323205831897,-8.31023647685e-05,0.999474246255,-0.016030963937,0.368278116543,-0.0021695882886,-0.598795600586,0.0475616658074,9.24870430013
6137995,0.00167016793194,0.0371564214926,-6.21004331602e-05,0.999308064125,-0.023240660329,0.37080977156,0.00167807745707,-0.699732836426,0.0314100414766,9.39646522778
6138075,0.000681890128844,0.038050842145,-2.59653036593e-05,0.999275571484,-0.0331004489632,0.371051694386,0.00313529678155,-0.73204359834,0.0130999409016,9.5983675229
6138155,0.000592876326185,0.0381186414914,-2.26160810146e-05,0.999273044346,-0.0415704625125,0.369068397775,0.00486100849917,-0.737304265693,0.0114512670312,9.65007705183
6138235,0.00169042002162,0.0411586797821,-6.96345628724e-05,0.999151190116,-0.0483552308879,0.366601349623,0.00887626595997,-0.780683253996,0.0320098776504,9.45963911562
6138316,0.00212227817294,0.0445301750117,-9.45994710548e-05,0.999005781014,-0.0520004018517,0.365972500856,0.0117111104979,-0.831610344243,0.0395566407015,9.30970274916
6138399,0.00226599508496,0.0490519542877,-0.000111285736684,0.998793651693,-0.053336124307,0.369852092209,0.0104321867904,-0.909811211429,0.0419299170381,9.24033106356
6138475,0.00131271210482,0.0503690014457,-6.62040895881e-05,0.998729811359,-0.0562660080876,0.374308297329,0.00625931207427,-0.949309706594,0.0246791098908,9.38761056318
6138555,-2.70840091484e-05,0.0507233510244,1.37556240697e-06,0.998712741946,-0.0580239383559,0.374427880032,0.00375558724456,-0.96774156004,-0.000515424690499,9.50255390139
6138634,-0.00178411361021,0.0535294403277,9.56398775031e-05,0.998564673324,-0.0556731760252,0.365560138363,0.00225335234674,-1.01782615917,-0.0338280780565,9.46617503126
6138715,-0.00213979111741,0.0558145879984,0.000119618301639,0.998438850783,-0.051708578258,0.35683397287,0.00135201140804,-1.0509893808,-0.0401687206132,9.37084571822
6138795,-0.00256411147156,0.0602878632658,0.000154867011753,0.998177727106,-0.0425187786143,0.350746893451,-0.00131724346249,-1.12236264948,-0.0475644086374,9.25738439138
6138875,-0.00495662507849,0.0630276415007,0.000313030630069,0.997999423991,-0.0331736882749,0.345391885554,-0.00802707712235,-1.17428457699,-0.0919849891766,9.25945770392
6138955,-0.00653010071242,0.0639669363778,0.000418576753973,0.997930565535,-0.0279923241327,0.339624740447,-0.0137557375641,-1.19514266636,-0.121510379492,9.28344660722
6139035,-0.00788304604655,0.0653050085985,0.000515919831955,0.997834078023,-0.0278633360776,0.328076342215,-0.018895694075,-1.23997924239,-0.149041840488,9.43143640183
6139115,-0.00891440610601,0.066290261094,0.000592264753888,0.997760383995,-0.0277859432446,0.317316092723,-0.0228310481045,-1.26879654934,-0.169870280074,9.50490738797
6139196,-0.00795962827777,0.0682207128382,0.000544296952568,0.99763835251,-0.0260367472989,0.307454422536,-0.026895020768,-1.29614258048,-0.150524461746,9.43167409831
6139275,-0.00753722399551,0.0709709168874,0.000536291367325,0.997449763949,-0.025412919793,0.301537420424,-0.0293334043661,-1.33050671162,-0.140592911911,9.30130344458
6139355,-0.00660917500097,0.0722419087067,0.000478720785591,0.997365126851,-0.0258900034123,0.298412909218,-0.0290936742792,-1.33723882067,-0.121705293045,9.18166136362
6139436,-0.00774332819826,0.0746278987368,0.000579501801842,0.997181218122,-0.0287303939527,0.296538202494,-0.0229901753665,-1.38988037981,-0.143412704636,9.23269866022
6139516,-0.00899018421753,0.0756692118052,0.000682264032118,0.997092213132,-0.0312860083999,0.294136308276,-0.0159225555272,-1.41954995396,-0.167689899393,9.29731870174
6139595,-0.00919284283828,0.0790651197347,0.000729146949679,0.99682679881,-0.0315423068838,0.287586891007,-0.00657370288609,-1.50486818527,-0.173876510436,9.42515502842
6139675,-0.00787619011798,0.0810827787755,0.000640753215987,0.996676044686,-0.0265878052366,0.277697579785,0.00414388943612,-1.55246782156,-0.149815737805,9.47719654733
6139755,-0.00764310219677,0.0823156370965,0.000631307919347,0.996576801019,-0.020635273818,0.269635542745,0.0122772050753,-1.57695746051,-0.145434921198,9.47969103875
6139837,-0.00795422284613,0.0841038857299,0.000671381225286,0.996425017747,-0.0140839245367,0.261818490091,0.0188599547047,-1.5971579077,-0.149989036215,9.39260227217
6139915,-0.00866827418308,0.0856507240437,0.000745210750688,0.996287237274,-0.008450354722,0.256276878375,0.0232352945437,-1.61071469702,-0.161819471534,9.29725338235
6139996,-0.00892378897318,0.0874444998167,0.000783368593745,0.996129114009,-0.00677297307905,0.2512491511,0.0254348083857,-1.63249572006,-0.165326430235,9.22519999816
6140075,-0.00833530377686,0.0888194345767,0.000743300814026,0.996012589407,-0.00704361427766,0.246529754489,0.0250517564451,-1.6568170817,-0.154262496324,9.21452911022
6140155,-0.00790731908583,0.0898220164281,0.0007131566111,0.995926187565,-0.00763168905829,0.239866905969,0.0209907147275,-1.6740435205,-0.146187614982,9.20405643464
6140235,-0.00795792891388,0.0911749862232,0.000728622215468,0.995802823035,-0.00457901343498,0.228632465812,0.0155742592667,-1.71310980371,-0.148285870991,9.27558438324
6140318,-0.00760024188285,0.0924704640998,0.000705842779136,0.995686171129,0.000232422369248,0.216783520981,0.00934455556004,-1.75283014492,-0.142841059948,9.35441417731
6140396,-0.00695905969076,0.0923988682944,0.000645787711588,0.995697546238,0.00567342422056,0.199883282668,0.000924142659942,-1.76325482035,-0.131673307844,9.41775320487
6140478,-0.00745320415249,0.0916778008754,0.000686202457287,0.995760593567,0.0106407855772,0.185911929128,-0.00497948520304,-1.7491589115,-0.141013807704,9.41768881501
6140555,-0.00739793677011,0.0908631656675,0.000675010916322,0.995835679225,0.0183037930672,0.166035485344,-0.00639321161352,-1.72082949241,-0.138956662308,9.35037311445
6140636,-0.0054904995147,0.0921388430204,0.000508057218766,0.995730902353,0.0203474571925,0.142615987414,-0.00596437727542,-1.73112573988,-0.1022881905,9.27335240871
6140715,-0.00401930758875,0.092784891125,0.000374549823393,0.995677994563,0.018168135176,0.125584458226,-0.00570707667256,-1.74113421102,-0.074780443597,9.26065880851
6140795,-0.0041461337623,0.0937793845964,0.000390546411283,0.995584292801,0.0143064015973,0.111108640098,-0.00342424600354,-1.76126508349,-0.0771899885703,9.26573191718
6140875,-0.00398658478842,0.0946272086989,0.000378942843552,0.995504723704,0.0119893614501,0.100294698914,0.00135097288957,-1.76855520366,-0.073847312234,9.21849754753
6140955,-0.00412779675836,0.0955075173975,0.000396049499138,0.995420071407,0.00719361687004,0.0921035739583,0.00719593465567,-1.78920984705,-0.0766301097525,9.23780153877
6141035,-0.00385275129598,0.0962449688037,0.000372540183815,0.995350151204,0.00431617012202,0.08293199837,0.0107029117153,-1.81716494387,-0.0720748639472,9.30828129436
6141115,-0.0036411552384,0.0971398022207,0.000355384191241,0.995264022516,0.00258970207321,0.0735978424639,0.0132327880126,-1.8351351028,-0.0681446156339,9.31130424048
6141197,-0.00342513555371,0.097784100171,0.000336538611088,0.995201700633,0.00495934173562,0.058632167568,0.0164534740368,-1.84088937467,-0.0638711053179,9.27720498325
6141275,-0.00449373324916,0.0968641145889,0.000437342523785,0.995287374781,0.00680681559453,0.0453958620159,0.0179601955899,-1.828779627,-0.0840519148997,9.30606598312
6141356,-0.00426225507963,0.0960607237898,0.000411341354795,0.995366264912,0.00919237009426,0.0327714880086,0.0163100881529,-1.83324536653,-0.0805980898578,9.40909500247
6141435,-0.0035498762471,0.0953453519965,0.000340015395856,0.995437866781,0.011475082917,0.0226427232354,0.0131915733834,-1.81030685249,-0.0667942066979,9.36317333937
6141515,-0.00267098291198,0.0950754087131,0.000255101304703,0.995466457211,0.0124190205492,0.0152883941871,0.0108947744603,-1.79199476091,-0.0498927508254,9.29563717379
6141595,-0.00173813777111,0.0943129721812,0.000164663161344,0.995541066477,0.0117083129442,0.00917303651224,0.00866531498349,-1.78292286729,-0.0325692723214,9.32550500325
6141675,-0.00154450555828,0.0935167386966,0.000145073050574,0.995616498979,0.0117075784426,0.00209830141565,0.00690194923594,-1.77843741178,-0.0291183700335,9.38340886865
6141755,-0.00177291867394,0.0915572953544,0.000163008565051,0.995798218443,0.0117071377416,-0.00810620050278,0.00414116954157,-1.74510035722,-0.0335121731431,9.40977148208
6141836,-0.00158998834214,0.0901819666521,0.000143975114577,0.995924025264,0.0108554931981,-0.0201885625143,0.00248470172494,-1.7109723347,-0.0299235306925,9.37004357162
6141915,-0.00169385352757,0.0894103234958,0.000152057220578,0.995993424572,0.0107701965335,-0.02999212009,0.00149082103496,-1.69408682367,-0.0318404880444,9.35961435464
6141995,-0.00232078662161,0.0890642619322,0.000207524439791,0.996023156422,0.0132731589035,-0.0358742546354,0.00302294292829,-1.6928140632,-0.0437645699263,9.38974868969
6142075,-0.00278251848527,0.0880891161713,0.00024606711972,0.996108681146,0.015200626387,-0.0381264651783,0.00394221606428,-1.67792461712,-0.0525949602175,9.41261769404
6142155,-0.00232317903566,0.0860996049974,0.000200770901082,0.996283805223,0.0142286565697,-0.0377750312581,0.00236532963857,-1.63403560523,-0.0437674045973,9.38324346676
6142235,-0.000110695995773,0.0849039441076,9.43258643619e-06,0.996389134792,0.00853719394183,-0.038415551029,0.00141919778314,-1.60602625694,-0.00207900599079,9.35532386326
6142316,0.00027751199786,0.0842988592704,-2.34775135965e-05,0.99644047728,0.0051223163651,-0.0392255529529,0.000851518669885,-1.59592441261,0.00521694088795,9.36466889926
6142394,0.000229432531619,0.0843210604189,-1.94151392214e-05,0.996438611131,0.000944939511748,-0.0422656944761,0.000510911201931,-1.60159489415,0.00432726536285,9.39541503828
6142476,0.000175943301174,0.0837470112528,-1.47866707096e-05,0.996487032997,-0.00156148660026,-0.0449411595129,0.000306546721159,-1.58871661178,0.00331461971575,9.38513230178
6142556,0.000387642220414,0.0811934681391,-3.15782787786e-05,0.99669828407,-0.000936891960157,-0.0495262689652,0.000183928032695,-1.52975372683,0.0072560154818,9.32700848385
6142636,0.000434849334354,0.079523354976,-3.46905461412e-05,0.996832907621,0.00241769525414,-0.0561085451898,0.0047929474957,-1.506107584,0.00818433194533,9.37952255369
6142715,-0.000573908709351,0.0786637560497,4.52861547231e-05,0.996901039252,0.0057075177671,-0.0609092910474,0.00840973929643,-1.50197554527,-0.0108911317898,9.45795734813
6142795,-0.00107343793085,0.0777140193871,8.36742815843e-05,0.996975110983,0.00597865102903,-0.0667695689923,0.00717429388517,-1.48728589357,-0.0204210487028,9.48203388886
