timestamp,orien_x,orien_y,orien_z,ang_v_x,ang_v_y,ang_v_z,lin_acc_x,lin_acc_y,lin_acc_z
7800450,-0.00397364858272,-0.018030606064,-7.16595075564e-05,-0.00170276024585,-0.00383121055316,0.0,0.139103116455,-0.03064578125,3.85538293335
7800527,-0.00461279317087,-0.0183554871917,-8.46852348288e-05,-0.00272441639336,-0.00612993688505,0.0,0.22663512915,-0.0569341154785,6.17004921436
7800608,-0.0047924467681,-0.0190869121529,-9.14907287211e-05,-0.00376310014332,-0.00750917268419,0.0,0.287773462744,-0.0722282756836,7.53394928569
7800688,-0.0040668101352,-0.020227310828,-8.22781470321e-05,-0.0043863103933,-0.00833671416367,0.0,0.338342832529,-0.0679972425098,8.35803541248
7800766,-0.00246573815842,-0.0237364890696,-5.85446399292e-05,-0.00646299678914,-0.00713047880551,0.0,0.420638630426,-0.043671387498,8.85296592888
7800847,-0.00186934289094,-0.0264645434187,-4.94887259565e-05,-0.0102631489954,-0.002149836976,0.0,0.486536100619,-0.0343431181434,9.18248538131
7800926,-0.00214527508601,-0.0271849592118,-5.83409117019e-05,-0.0129689303806,0.00381837855195,0.0,0.510272851777,-0.0402383244993,9.37469038894
7801007,-0.0033264259193,-0.0250582507962,-8.33810589456e-05,-0.0137410190889,0.0125075886063,0.0,0.476152028938,-0.0631684817601,9.49168933468
7801087,-0.00396315860563,-0.0218068147523,-8.64451012883e-05,-0.0137785822523,0.0194238748847,0.0,0.416893468339,-0.0757294752865,9.55159363499
7801167,-0.00415734291794,-0.0177682554857,-7.3881033319e-05,-0.0133754300889,0.0244250267747,0.0,0.340636903757,-0.0796747689122,9.58059303036
7801246,-0.00459658901971,-0.0133712901145,-6.1468470132e-05,-0.0131335387909,0.0235945073555,0.0,0.256815158612,-0.0882668694039,9.60014744907
7801327,-0.00576812497313,-0.0105782385458,-6.10210314255e-05,-0.0134140940735,0.0205420553352,0.0,0.203409649366,-0.110899801818,9.61211952047
7801406,-0.0057275722921,-0.00860752784603,-4.93028732308e-05,-0.0131567371817,0.0123252332011,0.0,0.165859680001,-0.110353771472,9.6327102926
7801486,-0.00616502070204,-0.00810228399415,-4.99533376309e-05,-0.0125766329851,0.00739513992068,0.0,0.156258387346,-0.118884699406,9.64099461306
7801567,-0.00678667052627,-0.0103238329343,-7.00698008116e-05,-0.0101001201598,-0.00279964709244,0.0,0.198860485289,-0.130707020816,9.62848753322
7801646,-0.00652156518891,-0.0123226394077,-8.03707079948e-05,-0.0081885224032,-0.0114706596691,0.0,0.237350433019,-0.125589985195,9.62744762979
7801727,-0.00591777458942,-0.0153362263786,-9.07685957038e-05,-0.00491311344192,-0.0179503373995,0.00255414036877,0.295878586227,-0.114140058011,9.64214657836
7801806,-0.00514993731712,-0.018797547648,-9.68245846643e-05,-0.00294786806515,-0.0205610738533,0.00408662459004,0.362838360232,-0.0993692362228,9.64545928369
7801886,-0.00483928800676,-0.0210373708654,-0.000101829625593,-0.00176872083909,-0.0208504455412,0.00500611512279,0.406126686794,-0.0933797851419,9.64553154556
7801967,-0.00468157442712,-0.0221388693391,-0.000103671310774,-0.0027639927493,-0.0176185480623,0.00513211938099,0.427071859244,-0.0902649548254,9.6376740372
7802046,-0.00394444245371,-0.0220021787586,-8.68080180144e-05,-0.00378684595689,-0.0139766493291,0.00307927162859,0.423837231757,-0.0759462080026,9.6243404062
7802126,-0.00364643407468,-0.0206539896183,-7.53299817767e-05,-0.00440055788145,-0.00838598959744,0.00184756297716,0.397954438664,-0.0702280019012,9.62735355525
7802206,-0.00278386651139,-0.0180435791284,-5.0239289339e-05,-0.00476878503618,-0.00503159375846,0.00110853778629,0.347708838735,-0.0536289691095,9.6303585455
7802286,-0.00278858448575,-0.0158823514699,-4.4295038239e-05,-0.00541541139048,-0.00301895625508,0.000665122671776,0.30606931081,-0.0537251964071,9.63168269932
7802367,-0.00336390930286,-0.0147384570249,-4.95844990518e-05,-0.00665476732598,-0.00181137375305,-0.00172937670424,0.283958636046,-0.0647962604224,9.62984356979
7802447,-0.0040286837353,-0.0142994278871,-5.76142308429e-05,-0.00739838088729,-0.00278958449768,-0.00274038626839,0.275720054675,-0.077663823148,9.63759863821
7802527,-0.0050523848646,-0.0146328540488,-7.39396707655e-05,-0.00741885896261,-0.00635634137469,-0.00164423176104,0.282029653654,-0.0973553690841,9.63315371296
7802606,-0.00551607295683,-0.0154116704766,-8.50232906589e-05,-0.00657976568487,-0.0101991557467,0.00156760131215,0.297068160845,-0.106297254654,9.63359921996
7802686,-0.00600237576425,-0.016615124138,-9.9745785031e-05,-0.00565061965677,-0.01250484437,0.0030690110946,0.32045647512,-0.115732528818,9.63865492748
7802768,-0.00600276329424,-0.0182500335174,-0.000109570854972,-0.00339037179406,-0.0138882575439,0.00184140665676,0.351727715639,-0.115647609332,9.63067502436
7802847,-0.00542845508355,-0.0188505682693,-0.000102349158175,-0.00203422307644,-0.0147183054483,0.00110484399406,0.363307854969,-0.104583330003,9.63067548581
7802926,-0.00474984437638,-0.0197012921618,-9.3597294461e-05,-0.00292329409171,-0.014364954068,0.000662906396434,0.379593325042,-0.0914804179238,9.62756330052
7803007,-0.00417909987216,-0.0199056615162,-8.32049605219e-05,-0.00345673670087,-0.0124501829939,0.00039774383786,0.383618523101,-0.080506208518,9.62976613217
7803087,-0.00331022964203,-0.0193310427718,-6.40025012893e-05,-0.00377680226637,-0.0108756302881,0.000238646302716,0.373104952972,-0.0638660359018,9.64473478062
7803167,-0.00280779662327,-0.0177443037085,-4.98304379843e-05,-0.00439453166713,-0.00907951854161,0.00014318778163,0.342136533795,-0.0541213524981,9.6359988774
7803246,-0.00264375375095,-0.0170713655946,-4.51392226179e-05,-0.00476516930759,-0.00800185149374,8.59126689778e-05,0.328822725941,-0.0509081642821,9.62644777249
7803327,-0.00265576250478,-0.0163476780211,-4.34215060299e-05,-0.00541324195333,-0.00778094132648,5.15476013867e-05,0.314848937078,-0.0511350328466,9.62574493302
7803407,-0.00343144395306,-0.0160631033895,-5.51270761687e-05,-0.00580208554077,-0.00849977534904,3.0928560832e-05,0.309577125919,-0.0661152042783,9.63226641416
7803486,-0.00415589346038,-0.016470695326,-6.84603331607e-05,-0.00603539169323,-0.00978245588551,1.85571364992e-05,0.317666787026,-0.0801311306236,9.63905234483
7803567,-0.00524165143719,-0.0169331904614,-8.87718299667e-05,-0.00617537538471,-0.0109777542688,1.11342818995e-05,0.326351306346,-0.100990535064,9.63163173527
7803646,-0.00552839759932,-0.017543110639,-9.70017015831e-05,-0.00583367553814,-0.0116949332989,6.68056913971e-06,0.338265782587,-0.106562992913,9.63579849551
7803726,-0.00582317278178,-0.0179915001494,-0.000104786352203,-0.00520296556873,-0.0129766208398,4.00834148383e-06,0.347090409494,-0.112300669283,9.64045333314
7803806,-0.0053624350616,-0.0185424547657,-9.945123847e-05,-0.00312177934124,-0.0128942532414,2.4050048903e-06,0.358131269622,-0.103532846638,9.65138652137
7803887,-0.00512765615851,-0.0183667385405,-9.41954481065e-05,-0.00187306760474,-0.0124191426209,0.00170420324878,0.354700138726,-0.0989904135493,9.65052440916
7803967,-0.0043650626844,-0.0181309511962,-7.9156504673e-05,-0.00282660080869,-0.0112826961257,0.00272528219512,0.350247258529,-0.0842939453952,9.65359844432
7804046,-0.00390958965573,-0.0176759566574,-6.91170640683e-05,-0.00339872073106,-0.0101751381671,0.00163516931707,0.341350606094,-0.0754760645028,9.65089388227
7804127,-0.00350260920249,-0.0173427042842,-6.07542256587e-05,-0.00416768274595,-0.00951060339197,0.000981101590242,0.334576093637,-0.0675517141411,9.64137027956
7804206,-0.00308500936171,-0.0165266031536,-5.09919323519e-05,-0.00462905995488,-0.0099632626498,0.000588660954145,0.318540377862,-0.0594452215999,9.6330224961
7804286,-0.00342872526864,-0.0164484703846,-5.64052485258e-05,-0.00490588628024,-0.0102348582045,0.000353196572487,0.317059234041,-0.0660734940439,9.63375991002
7804367,-0.00418141399806,-0.0166740160998,-6.97312682947e-05,-0.00549767213691,-0.0103978155373,0.000211917943492,0.321437791401,-0.080584944815,9.63444177853
7804447,-0.00436097156707,-0.0169881768065,-7.40963537299e-05,-0.00585274365092,-0.0109212799985,0.000127150766095,0.327416808142,-0.0840245716253,9.63197785764
7804527,-0.00485045962903,-0.0175735485184,-8.52539564704e-05,-0.00564009649786,-0.0112353586752,7.62904596572e-05,0.338905083664,-0.093510372858,9.63744268993
7804607,-0.00539080470578,-0.0179446383778,-9.67530265365e-05,-0.00338405789872,-0.0114238058812,4.57742757943e-05,0.34627688931,-0.103990256918,9.64311579096
7804686,-0.00515654583606,-0.0183040768925,-9.44028828665e-05,-0.00203043473923,-0.0115368742048,2.74645654766e-05,0.353333594523,-0.0995042798832,9.64628023141
7804767,-0.00526480157735,-0.018447458882,-9.71400878047e-05,-0.00292102108939,-0.0111790251375,1.6478739286e-05,0.356131096655,-0.101601096983,9.64698179485
7804847,-0.00460980671588,-0.0184948066659,-8.52729758803e-05,-0.00175261265363,-0.0105386256357,9.88724357158e-06,0.357091337437,-0.0889728176134,9.64836041358
7804926,-0.00458627480961,-0.0182270004342,-8.36088022593e-05,-0.00105156759218,-0.0101543859346,5.93234614295e-06,0.351203137423,-0.0883390348063,9.62883687071
7805006,-0.00401589789214,-0.0175060909126,-7.03140160066e-05,-0.00233370080116,-0.0103495321754,3.55940768577e-06,0.337614570442,-0.0774242778174,9.63795229943
7805087,-0.00407535098026,-0.0173639590505,-7.07754860019e-05,-0.003528670788,-0.0104666199198,2.13564461146e-06,0.334728673906,-0.0785368689365,9.63384475002
7805167,-0.00386128478741,-0.017099414671,-6.60358570593e-05,-0.00424565278011,-0.010962562628,1.28138676688e-06,0.32964525366,-0.0744160202877,9.63449268253
7805247,-0.00399191581676,-0.0171810918935,-6.85961444688e-05,-0.00467584197538,-0.0121115083758,7.68832060126e-07,0.331383604833,-0.0769713345847,9.63919100503
7805327,-0.00457411606517,-0.0176197672003,-8.06082175084e-05,-0.00493395549254,-0.012375185763,4.61299236076e-07,0.340327481015,-0.0883207499696,9.65254448583
7805407,-0.00502056853471,-0.01728409925,-8.67900639663e-05,-0.00508882360283,-0.0116820120724,2.76779541645e-07,0.334201638755,-0.0970457605286,9.66295077597
7805487,-0.0048693858697,-0.0177096866969,-8.62498476375e-05,-0.00518174446901,-0.0112661078581,1.66067724987e-07,0.3424971417,-0.0941404812195,9.6646455669
7805567,-0.00504360348467,-0.0178088942343,-8.98363914326e-05,-0.00481180692725,-0.0110165653295,9.96406349923e-08,0.344122561143,-0.0974251371204,9.65632505498
7805647,-0.00486058223013,-0.0174508282987,-8.483510698e-05,-0.0045898444022,-0.0112925298738,5.97843809954e-08,0.337196947331,-0.0938892668425,9.65636057132
7805727,-0.00484223061203,-0.0169552009717,-8.21137601007e-05,-0.00275390664132,-0.0110324185389,3.58706285972e-08,0.327295495058,-0.0934436858379,9.64704449465
7805807,-0.00470880871147,-0.0168496633924,-7.93539874411e-05,-0.00335510423064,-0.0108763517379,2.15223771583e-08,0.324945926185,-0.090782135575,9.63786354615
7805887,-0.00449812765821,-0.0167257961848,-7.52460538434e-05,-0.00371582278423,-0.0112084017189,1.2913426295e-08,0.322817924364,-0.0867910037571,9.64576250635
7805967,-0.00451108277439,-0.0168601786238,-7.6069248401e-05,-0.00435794397785,-0.0114076317074,7.748055777e-09,0.325371845927,-0.0870299464926,9.64451637832
7806046,-0.00424013296417,-0.0171287229664,-7.26393728851e-05,-0.00474321669402,-0.0111014796391,4.6488334662e-09,0.330974341687,-0.0819060684815,9.65669739047
7806126,-0.00382407019116,-0.0172931150852,-6.61404601835e-05,-0.00497438032372,-0.0113434784595,2.78930007972e-09,0.333856998811,-0.0738039181885,9.6482042668
7806206,-0.00383691158389,-0.0173397057796,-6.65414120994e-05,-0.00553876856301,-0.0114886777518,1.67358004783e-09,0.334389492255,-0.073970451499,9.63760172878
7806287,-0.00399304763467,-0.0174515081455,-6.96958731347e-05,-0.00587740150658,-0.0111501072657,1.0041480287e-09,0.336384929484,-0.0769434134775,9.63291614713
7806367,-0.00458526136731,-0.0177471700535,-8.13890874677e-05,-0.00565489121126,-0.0100955848511,6.0248881722e-10,0.34189175481,-0.0883039973053,9.62723175615
7806447,-0.00516771299827,-0.0175321664258,-9.06163426129e-05,-0.00552138503406,-0.00946287140236,3.61493290332e-10,0.33825266519,-0.0996693307562,9.64153821385
7806527,-0.00512612843704,-0.01725244935,-8.8452598697e-05,-0.00501559126629,-0.00950893339458,2.16895974199e-10,0.332717329095,-0.0988270855143,9.63767223983
7806607,-0.0053508684337,-0.0174485139004,-9.33802556086e-05,-0.00471211500562,-0.0103879507128,1.30137584519e-10,0.336339312252,-0.103110141689,9.63295845376
7806686,-0.00501833784712,-0.0173842558389,-8.72543538881e-05,-0.00453002924922,-0.0109153611038,7.80825507117e-11,0.33468177949,-0.0965820090859,9.62103221581
7806767,-0.00465210225641,-0.0169686168627,-7.89519628042e-05,-0.00442077779538,-0.0108061172769,4.6849530427e-11,0.326744075018,-0.0895526673656,9.62321385952
7806847,-0.00464425017199,-0.0172426275683,-8.00918470593e-05,-0.00435522692308,-0.0107405709808,2.81097182562e-11,0.332037099308,-0.0894052051557,9.62356516508
7806927,-0.00414896529231,-0.0173838739227,-7.21366113444e-05,-0.00431589639969,-0.0111269332645,1.68658309537e-11,0.335212913881,-0.0799793413551,9.63670463738
7807007,-0.00413395499885,-0.0175416220284,-7.25280557063e-05,-0.00471798814713,-0.0113587506348,1.01194985722e-11,0.337836663124,-0.0795910667271,9.62471644698
7807087,-0.00397184609457,-0.0176074425062,-6.99454468819e-05,-0.00495924319559,-0.0119235311184,6.07169914334e-12,0.339171492503,-0.0764850599582,9.62662149904
7807167,-0.0040726796156,-0.0178667829432,-7.2777903633e-05,-0.00510399622466,-0.0114110192857,3.643019486e-12,0.344281953119,-0.078452178553,9.62967989161
7807246,-0.00403565422051,-0.01791909896,-7.23274895104e-05,-0.00519084804211,-0.011103512186,2.1858116916e-12,0.345193447995,-0.0777170883818,9.626965944
7807327,-0.00449556503374,-0.0178274771564,-8.01581322351e-05,-0.00524295913257,-0.0104933178648,1.31148701496e-12,0.343585563426,-0.0866134207537,9.63132307958
7807407,-0.00478982349572,-0.0175217434712,-8.39399081527e-05,-0.00527422578685,-0.0105528913335,7.86892208977e-13,0.337353589032,-0.0921906403428,9.62172693247
7807486,-0.00475096991072,-0.0170000623103,-8.07793701295e-05,-0.00529298577942,-0.0105886354147,4.72135325386e-13,0.327389480079,-0.0914668292741,9.62434895001
7807567,-0.00442640178996,-0.0167509807683,-7.41577029364e-05,-0.00530424177496,-0.010184391802,2.83281195232e-13,0.322847535704,-0.0852864586484,9.63214708485
7807646,-0.00465866981257,-0.0167045713986,-7.78327875688e-05,-0.00531099537229,-0.00994184563435,1.69968717139e-13,0.321798310241,-0.0897185219176,9.62748857928
7807727,-0.00453552811766,-0.016832844389,-7.63574432423e-05,-0.00531504753068,-0.0106476980567,1.01981230283e-13,0.324281237121,-0.0873499363927,9.62780593809
7807807,-0.00442126229911,-0.0170965923089,-7.56003077929e-05,-0.00531747882572,-0.0106455194486,6.118873817e-14,0.329601715905,-0.0852105245798,9.63470011803
7807887,-0.00444121615895,-0.0175707762413,-7.80484344194e-05,-0.00489324754128,-0.0106442122838,3.6713242902e-14,0.338779507326,-0.0856028186541,9.63548474367
7807967,-0.00477081815074,-0.0176332647556,-8.41391393316e-05,-0.00463870877062,-0.0102177379234,2.20279457412e-14,0.339497778859,-0.0918236992491,9.62159030909
7808046,-0.00503889447453,-0.0170201087135,-8.57760460575e-05,-0.00491167556968,-0.0103875433687,1.32167674447e-14,0.327718313311,-0.0969927486022,9.62259103482
7808126,-0.00479162430182,-0.0174437260343,-8.35974613436e-05,-0.00507545564912,-0.0104894266358,7.93006046684e-15,0.335734104442,-0.0921933127355,9.61840306694
7808206,-0.00461108252737,-0.0171242484103,-7.89737425607e-05,-0.00517372369678,-0.0101248665347,4.7580362801e-15,0.330009091816,-0.0888348108835,9.63097375667
7808287,-0.00488742604371,-0.0168567057651,-8.23985948692e-05,-0.00480699446392,-0.00990613047395,2.85482176806e-15,0.325137563244,-0.0942417349188,9.63947385117
7808367,-0.00484276274506,-0.0164061466636,-7.94627029038e-05,-0.0045869569242,-0.00977488883753,1.71289306084e-15,0.315750301618,-0.0931763263517,9.61847710977
7808447,-0.00496215388108,-0.0162611771079,-8.07021276315e-05,-0.00445493440037,-0.0101218339171,1.0277358365e-15,0.312751566469,-0.0954101232036,9.61210398925
7808527,-0.00545598367116,-0.0163813794427,-8.93898644356e-05,-0.00437572088607,-0.0107556910264,6.16641501901e-16,0.315022468202,-0.104890686959,9.6106743186
7808607,-0.00537164671662,-0.0164444246286,-8.83468608424e-05,-0.00432819277749,-0.0107103152304,3.69984901141e-16,0.316624429407,-0.103396420232,9.62250578501
7808686,-0.00535979300406,-0.0165225834367,-8.85709904274e-05,-0.00429967591234,-0.0111087798143,2.21990940684e-16,0.319022127127,-0.10345754086,9.64947653863
7808767,-0.00468597426882,-0.0171867960585,-8.05496663581e-05,-0.00470825585472,-0.0121992386876,1.33194564411e-16,0.333150014557,-0.0908049444379,9.68720680575
7808846,-0.0043736727288,-0.0176330112484,-7.71337507818e-05,-0.00495340382014,-0.0124278239501,7.99167386464e-17,0.34138732685,-0.0846499075807,9.67536846211
7808926,-0.00414731919762,-0.0182137207876,-7.55512966787e-05,-0.00510049259939,-0.0121392850462,4.79500431878e-17,0.350399857047,-0.0797597846363,9.61391707824
7809007,-0.00415163286187,-0.018964059762,-7.87466540345e-05,-0.00518874586695,-0.0115404716423,2.87700259127e-17,0.364187080976,-0.0796987528619,9.59643928137
7809086,-0.0040582769564,-0.01870268107,-7.5914563331e-05,-0.00566738788894,-0.0111811836,1.72620155476e-17,0.359530726369,-0.0779861926351,9.60630331736
7809166,-0.00441055230751,-0.0181602911571,-8.01109048791e-05,-0.00552888304067,-0.0105399207132,1.03572093286e-17,0.350511989288,-0.0850989421436,9.64526172186
7809246,-0.00446185835783,-0.0177345024018,-7.91420724936e-05,-0.00544578013171,-0.00972947291959,6.21432559714e-18,0.342945965546,-0.0862541296904,9.66384836124
7809327,-0.00494077220165,-0.0175338034229,-8.66449064199e-05,-0.00497022832488,-0.00881751418199,3.72859535829e-18,0.3384063513,-0.0953269480291,9.64507282412
7809407,-0.00496354288794,-0.0167692645932,-8.32476957152e-05,-0.00511058730224,-0.00869602900089,2.23715721497e-18,0.322753893788,-0.09550339538,9.61872403138
7809486,-0.00511944053942,-0.0160238120142,-8.20445620439e-05,-0.00562049275011,-0.00904882795369,1.34229432898e-18,0.308334595794,-0.0984823057827,9.61680112537
7809566,-0.005299026318,-0.0161699638351,-8.5697471877e-05,-0.00592643601884,-0.0101118874483,8.0537659739e-19,0.311175184967,-0.101945593186,9.6175627431
7809646,-0.00520573247582,-0.0162625506911,-8.46708332219e-05,-0.00568431191861,-0.0111754132065,4.83225958434e-19,0.313837219134,-0.100432263138,9.64459535216
7809726,-0.00484123356535,-0.0166554151159,-8.06448864984e-05,-0.00341058715117,-0.0122392187229,2.8993557506e-19,0.321898784117,-0.0935387609592,9.65889955626
7809807,-0.00432394140946,-0.0169065221943,-7.3113945033e-05,-0.0020463522907,-0.0128775020328,1.73961345036e-19,0.326256882775,-0.0834171555013,9.64425832263
7809887,-0.00364866504479,-0.0175079398198,-6.3890826418e-05,-0.00335626168173,-0.0124090918957,1.04376807022e-19,0.336772607448,-0.0701615872461,9.61296808684
7809967,-0.00343298321109,-0.0178018823746,-6.11236096903e-05,-0.00414220731635,-0.0117023557521,6.2626084213e-20,0.34380030275,-0.0662783891152,9.65141536504
7810046,-0.00358678693537,-0.0181886326564,-6.52499640122e-05,-0.00461377469712,-0.0117040041273,3.75756505278e-20,0.35232648292,-0.0694551340551,9.68022981595
7810126,-0.0038175156433,-0.0181973155821,-6.94805483654e-05,-0.00447102506412,-0.0108536130296,2.25453903167e-20,0.351696107037,-0.0737553826791,9.65825357927
7810206,-0.00387729752795,-0.0180938351288,-7.01671967536e-05,-0.00438537528432,-0.00949199824796,1.352723419e-20,0.349641940345,-0.0748990108575,9.65679942539
7810286,-0.00425903155366,-0.0179053120875,-7.62722086815e-05,-0.00518536553936,-0.00867502937901,8.11634051401e-21,0.345057558006,-0.0820495322469,9.63054839547
7810367,-0.00466585735549,-0.0171992987836,-8.02622210925e-05,-0.00523966963093,-0.00903622818057,4.86980430841e-21,0.332490701796,-0.0901705677368,9.66100586956
7810447,-0.00539973526681,-0.0169286965828,-9.14249146362e-05,-0.00527225208587,-0.00967863752296,2.92188258504e-21,0.32734478973,-0.104380575505,9.66347862305
7810527,-0.00544870663256,-0.0173642314744,-9.46282756015e-05,-0.00486611149737,-0.0104897731899,1.75312955103e-21,0.335509990293,-0.105245134854,9.65586430884
7810606,-0.00615722963606,-0.0171316533821,-0.000105501007737,-0.00462242714427,-0.01097645459,1.05187773062e-21,0.330353463658,-0.118692559428,9.63645167002
7810686,-0.00526316801586,-0.0176670578756,-9.30004976775e-05,-0.00447621653241,-0.0116941534915,6.31126638369e-22,0.340427656808,-0.101382476575,9.62935306988
7810767,-0.00459205893471,-0.0177524936687,-8.15342060386e-05,-0.00481418022676,-0.0121247728325,3.78675983022e-22,0.342641450042,-0.0886022252027,9.64544462391
7810846,-0.00393340050845,-0.0173597913996,-6.8293832238e-05,-0.0045912683819,-0.012383144437,2.27205589813e-22,0.33511117984,-0.0759062508931,9.64719869085
7810926,-0.00396436046633,-0.0176513156453,-6.99876319863e-05,-0.00275476102914,-0.0125381673998,1.36323353888e-22,0.340409244525,-0.0764289519519,9.63771664371
7811007,-0.00384294715136,-0.0177614696219,-6.8267662467e-05,-0.00335561686333,-0.0122054911159,8.17940123327e-23,0.342630402672,-0.074108950761,9.64040712124
7811086,-0.00397025315512,-0.0172511857456,-6.85023087959e-05,-0.00371613036385,-0.0111545052227,4.90764073996e-23,0.332710349757,-0.0765476727027,9.63843010526
7811167,-0.00426934558508,-0.0170282706361,-7.27107774595e-05,-0.00393243846416,-0.0100982236253,2.94458444398e-23,0.328434259171,-0.082320468856,9.639159257
7811246,-0.00411292105653,-0.0171773379,-7.06600579385e-05,-0.00406222332434,-0.00946445466689,1.76675066639e-23,0.331375268637,-0.0793198020655,9.64103326905
7811327,-0.00399201525072,-0.0169223432353,-6.75644656319e-05,-0.00414009424045,-0.00993557341476,1.06005039983e-23,0.326675529835,-0.0770405616592,9.64766434009
7811407,-0.00472937963876,-0.0174399403998,-8.24935682488e-05,-0.00461250685158,-0.0102182446635,6.36030239899e-24,0.336544955352,-0.0912353282065,9.64374211724
7811486,-0.004914405746,-0.0168680962903,-8.2909467021e-05,-0.00489595441826,-0.0108135374742,3.81618143939e-24,0.325228358709,-0.0947243646485,9.63564269954
7811567,-0.00524351601038,-0.016531172884,-8.66945087273e-05,-0.0046403328968,-0.0111707131606,2.28970886364e-24,0.318917241056,-0.101127349502,9.64131753623
7811646,-0.00517380657898,-0.0167082747787,-8.64586086532e-05,-0.00278419973808,-0.0113850185724,1.37382531818e-24,0.322073755278,-0.0997018967617,9.63346969044
7811726,-0.00515172702368,-0.0174929699517,-9.01339944095e-05,-0.00167051984285,-0.011939291881,8.24295190909e-25,0.337375193108,-0.0993254654496,9.63809836944
7811806,-0.00451715074649,-0.0178122162608,-8.0474054614e-05,-0.00270507215156,-0.0122718558661,4.94577114545e-25,0.343683013814,-0.0871285983616,9.64231209784
7811887,-0.00414386815619,-0.0179852559225,-7.45412264886e-05,-0.00332580353678,-0.0111943240728,2.96746268727e-25,0.346510025574,-0.0798104781087,9.62808092325
7811966,-0.00409133636719,-0.0177067896564,-7.24563987127e-05,-0.00369824236792,-0.0101221149354,1.78047761236e-25,0.341023627649,-0.0787714882813,9.62480946215
7812046,-0.00421948706524,-0.0175685244452,-7.4142264979e-05,-0.00434739572806,-0.0099044795144,1.06828656742e-25,0.338450049392,-0.081260556543,9.62739556865
7812126,-0.00443012206541,-0.0171140351869,-7.58291149663e-05,-0.00516257780561,-0.0097738982618,6.40971940451e-26,0.329962717624,-0.0853876193262,9.63541157703
7812206,-0.00478118038158,-0.0173676027293,-8.30511175902e-05,-0.00522599699068,-0.00969554951024,3.8458316427e-26,0.334925965535,-0.0921734199844,9.63734814007
7812286,-0.00473099114222,-0.0175445976042,-8.30170431907e-05,-0.00526404850172,-0.0096485402593,2.30749898562e-26,0.338382754614,-0.091217076893,9.63851007789
7812367,-0.0051646697056,-0.0171814152937,-8.87506198617e-05,-0.0057125694698,-0.0100460247702,1.38449939137e-26,0.331119441587,-0.0995018171807,9.63106695494
7812447,-0.00522214352457,-0.0168257494843,-8.78801180807e-05,-0.00555599198919,-0.0102845154767,8.30699634824e-27,0.32436725211,-0.100641938697,9.63426252648
7812527,-0.00465856409702,-0.0171269666199,-7.97996428791e-05,-0.00503635543936,-0.0108532999621,4.98419780895e-27,0.330371585397,-0.0898338436382,9.64001059206
7812607,-0.00467099248771,-0.0175533454943,-8.20050746296e-05,-0.00472457350947,-0.0111945706534,2.99051868537e-27,0.338523168523,-0.0900527512513,9.63771334742
7812686,-0.0045084330492,-0.0172408422349,-7.7741528433e-05,-0.00453750435153,-0.0109736430066,1.79431121122e-27,0.332161370596,-0.0868322134949,9.628194715
7812767,-0.00464439341465,-0.0171176983785,-7.95138338272e-05,-0.00485095291823,-0.0112667764801,1.07658672673e-27,0.329780812836,-0.0894488739954,9.62799019936
7812847,-0.00447476609513,-0.0174684992025,-7.81801602363e-05,-0.00503902205825,-0.0114426565641,6.45952036039e-28,0.336732183991,-0.0862304669754,9.6333741538
7812926,-0.00423530097857,-0.0177980182101,-7.53925824332e-05,-0.00515186354226,-0.011973874676,3.87571221624e-28,0.343297208344,-0.0816658009372,9.63923814828
7813007,-0.00447861018701,-0.0182022870669,-8.1535274796e-05,-0.00521956843266,-0.0118669154817,2.32542732974e-28,0.351066945612,-0.0863490264607,9.63820756182
7813087,-0.00432609557313,-0.017909481976,-7.74912848185e-05,-0.00526019136691,-0.0109513598422,1.39525639785e-28,0.345433720834,-0.0834128777905,9.63878631077
7813167,-0.00442240291151,-0.0173677281491,-7.68194297827e-05,-0.00528456512746,-0.009976336397,8.37153838707e-29,0.334871180987,-0.0852424910786,9.63578167782
7813246,-0.00465550231598,-0.0172957508155,-8.05333274939e-05,-0.00529918938378,-0.00981701239136,5.02292303224e-29,0.333322060399,-0.0896921413757,9.63110585606
7813327,-0.00476645571044,-0.01732438635,-8.25892537189e-05,-0.00530796393758,-0.00972141798797,3.01375381935e-29,0.334068529208,-0.0918830912219,9.63668006881
7813407,-0.00475693643906,-0.0173979728976,-8.27745166376e-05,-0.00531322866986,-0.00966406134594,1.80825229161e-29,0.335713511324,-0.0917611401335,9.64313705862
7813486,-0.00487063810184,-0.017221525592,-8.38932557669e-05,-0.00318793720191,-0.0100553374222,1.08495137496e-29,0.331912097273,-0.0938427509746,9.63168836188
7813566,-0.00447077199685,-0.0176419667323,-7.88862767881e-05,-0.00191276232115,-0.0107157931294,6.50970824979e-30,0.339447475649,-0.0859937511707,9.61548175736
7813646,-0.0045829956209,-0.0173894002393,-7.97084351004e-05,-0.00114765739269,-0.0111120665537,3.90582494987e-30,0.334870736366,-0.0882275361028,9.6237143071
7813727,-0.00436593452749,-0.0178655742738,-7.80131225133e-05,-0.00239135468146,-0.0113498306083,2.34349496992e-30,0.344095701097,-0.0840611432437,9.62506253446
7813807,-0.0044209962251,-0.0183696102001,-8.12264773435e-05,-0.00313757305473,-0.0119181791025,1.40609698195e-30,0.353940242924,-0.0851526100185,9.6285050927
7813887,-0.00464426259053,-0.0182523487567,-8.47837392927e-05,-0.00401099414015,-0.0118334981376,8.43658189172e-31,0.351467262209,-0.0893987925736,9.62266976216
7813966,-0.00445042713685,-0.0183253657927,-8.15702109943e-05,-0.0045350467914,-0.0113569994972,5.06194913503e-31,0.353095935939,-0.0857215777903,9.62874537048
7814046,-0.00413736522444,-0.0175083781047,-7.24502805143e-05,-0.00484947838215,-0.0106454102515,3.03716948102e-31,0.337313728556,-0.079684526264,9.62808117248
7814126,-0.00448377204337,-0.0175260907258,-7.85958578785e-05,-0.0050381373366,-0.00979276664258,1.82230168861e-31,0.337660630932,-0.0863573624869,9.62816149402
7814206,-0.00465442802294,-0.0176364886912,-8.21014265629e-05,-0.00472564264781,-0.00928118047724,1.09338101317e-31,0.339784133686,-0.0896428037226,9.62797026677
7814286,-0.00506545125877,-0.0175958372544,-8.91458016348e-05,-0.00453814583453,-0.00854853871658,6.560286079e-32,0.339142874011,-0.0975995726144,9.63192567325
7814367,-0.00516978611283,-0.0174460216449,-9.02071353837e-05,-0.00442564774657,-0.00853464372164,3.9361716474e-32,0.335885076213,-0.0995005919573,9.62137022817
7814447,-0.00489620927723,-0.0172369259563,-8.44091494011e-05,-0.00435814889379,-0.00895199678614,2.36170298844e-32,0.332493876538,-0.0944162792467,9.63993665838
7814527,-0.00476135720813,-0.0174113971014,-8.29153905256e-05,-0.00431764958212,-0.0100537887478,1.41702179306e-32,0.335965820552,-0.0918445319523,9.64293623087
7814606,-0.00482034647011,-0.0173544988231,-8.36682701311e-05,-0.00471904005658,-0.0111405539862,8.50213075839e-33,0.334697104636,-0.0929351054018,9.63803220971
7814686,-0.00486843072299,-0.017333593948,-8.44010822462e-05,-0.0045341842798,-0.0113669230678,5.10127845503e-33,0.334175295252,-0.0938288696376,9.63461095669
7814767,-0.00438812459085,-0.0171483538578,-7.52609048292e-05,-0.00442327081373,-0.0110770544553,3.06076707302e-33,0.330510327298,-0.0845489013724,9.63207936454
7814847,-0.0043375427322,-0.0171427572788,-7.43690705322e-05,-0.00435672273408,-0.0109031332878,1.83646024381e-33,0.330226707853,-0.0835299035676,9.62696910676
7814926,-0.00408388598587,-0.0177383440157,-7.24533786021e-05,-0.00474248394776,-0.0107987805873,1.10187614629e-33,0.341548704155,-0.0786089418964,9.6224664311
7815007,-0.00426371055436,-0.0175706277806,-7.49283195922e-05,-0.00497394067597,-0.010736168967,6.61125687772e-34,0.33852567513,-0.0821207093761,9.62838395168
7815086,-0.00418399328447,-0.0172048308676,-7.19961837156e-05,-0.00511281471289,-0.0106986019948,3.96675412663e-34,0.331684034228,-0.0806364673737,9.63456808585
7815167,-0.00398100462802,-0.0171116046871,-6.81318930606e-05,-0.00519613913504,-0.0102503717501,2.38005247598e-34,0.329494411016,-0.0766334600141,9.62319509589
7815246,-0.0039759341318,-0.0167875748601,-6.67562271166e-05,-0.00524613378834,-0.00998143360319,1.42803148559e-34,0.323631653934,-0.0766258572584,9.63456723454
7815327,-0.0042991174203,-0.0173143603374,-7.44483166105e-05,-0.00527613058031,-0.0102457607765,8.56818891353e-35,0.333760949147,-0.0828462199215,9.63348965225
7815407,-0.00430651556481,-0.0171705173493,-7.39566893361e-05,-0.0052941286555,-0.0104043570805,5.14091334812e-35,0.330979980133,-0.0829871350291,9.6333219432
7815486,-0.00457559574726,-0.017222317002,-7.88148752773e-05,-0.00530492750061,-0.0104995148629,3.08454800887e-35,0.331705600384,-0.0880995075799,9.6253204523
7815567,-0.00443070936776,-0.0178304788075,-7.9015006897e-05,-0.00488571674621,-0.0109822995938,1.85072880532e-35,0.34387256067,-0.0854208471261,9.63775780971
7815646,-0.00461550876461,-0.0174576740219,-8.05891877824e-05,-0.00463419029358,-0.0112719704324,1.11043728319e-35,0.337046947047,-0.0890808945061,9.64833268631
7815726,-0.00496739160425,-0.0171423719637,-8.51664402427e-05,-0.00448327442199,-0.0114457729355,6.66262369916e-36,0.330796797378,-0.0958259060884,9.64366428464
7815806,-0.00535582524479,-0.016665686659,-8.92721845702e-05,-0.0026899646532,-0.0115500544374,3.9975742195e-36,0.321300623593,-0.103224795362,9.63487773949
7815886,-0.0045826088495,-0.0168766923835,-7.73511088788e-05,-0.00161397879192,-0.0116126233385,2.3985445317e-36,0.325179725962,-0.0882710954789,9.62936639223
7815966,-0.00458009375314,-0.016985132286,-7.78055387634e-05,-0.000968387275151,-0.0125015448021,1.43912671902e-36,0.327028347052,-0.0881574216917,9.62222886121
7816046,-0.00401642934841,-0.0169293464263,-6.80058186256e-05,-0.00058103236509,-0.0130348976803,8.63476031411e-37,0.325982738212,-0.0773153099486,9.62321358626
7816126,-0.00337627646579,-0.0169279745755,-5.71620387745e-05,-0.000348619419054,-0.0129292193457,5.18085618847e-37,0.326313053572,-0.0650639589184,9.63386006826
7816206,-0.00332008357366,-0.0173471249041,-5.76028897274e-05,-0.000209171651433,-0.012865812345,3.10851371308e-37,0.3341726881,-0.0639380726166,9.6273192685
7816286,-0.00338074782734,-0.0181059617393,-6.1222076765e-05,-0.00012550299086,-0.0128277681445,1.86510822785e-37,0.349183535956,-0.0651779021637,9.6377599986
7816366,-0.00379200502186,-0.018697218104,-7.09128512054e-05,-0.00220375210183,-0.0119535615013,1.11906493671e-37,0.360584246329,-0.0731044048725,9.63732067201
7816446,-0.00406737550444,-0.0186722453911,-7.5960905323e-05,-0.00345070156841,-0.0114290375154,6.71438962025e-38,0.359763227241,-0.0783391468297,9.62819852991
7816527,-0.00456535390955,-0.0186436612094,-8.51305956151e-05,-0.00419887124835,-0.0102629430009,4.02863377215e-38,0.359270615788,-0.0879443364865,9.62966842947
7816606,-0.00466273087531,-0.0181202653022,-8.45047140093e-05,-0.00422208299486,-0.00956328629227,2.41718026329e-38,0.349398242275,-0.0898767276243,9.63581761286
7816686,-0.00476131205994,-0.0176686662507,-8.41401224183e-05,-0.00466170010423,-0.00956918232852,1.45030815797e-38,0.340601776176,-0.0917544228051,9.63352161874
7816767,-0.0047918192818,-0.017433388508,-8.35513044237e-05,-0.00492547036985,-0.00957271995027,8.70184894785e-39,0.33628157718,-0.0924021995815,9.63980546758
7816847,-0.00485986273051,-0.0173299620237,-8.42348817341e-05,-0.00508373252922,-0.0100005325848,5.22110936871e-39,0.334407718281,-0.0937485463114,9.64333635672
7816928,-0.00467000203667,-0.0174357852569,-8.14384209624e-05,-0.00475299976338,-0.010682910227,3.13266562123e-39,0.336156444933,-0.090007371195,9.6349204029
7817008,-0.00439514110429,-0.0173162362864,-7.61194505598e-05,-0.00455456010388,-0.0115180268737,1.87959937274e-39,0.333614378435,-0.084650203967,9.62819488945
7817089,-0.00430234888632,-0.017943004225,-7.72102091495e-05,-0.00273273606233,-0.0120190968618,1.12775962364e-39,0.345736087998,-0.0828724246263,9.62918740486
7817169,-0.00387791000115,-0.0180151836631,-6.98731260112e-05,-0.0016396416374,-0.0118940487931,0.00170276024585,0.34678418942,-0.0746231520414,9.61972726713
7817248,-0.00385105436443,-0.0176472799039,-6.79717234848e-05,-0.000983784982437,-0.011819019952,0.00102165614751,0.340230445293,-0.0742225716448,9.63488073894
7817328,-0.00453006580283,-0.0172785115084,-7.82852845269e-05,-0.00229303123531,-0.0109226225243,0.000612993688505,0.333425156824,-0.0873897527037,9.64373340186
7817408,-0.00466649664275,-0.0176371728099,-8.23175086533e-05,-0.00307857898703,-0.0103847840678,0.000367796213103,0.34035531138,-0.0900228176866,9.64377775596
7817486,-0.00457817514935,-0.0174071906767,-7.97060802634e-05,-0.00397559769953,-0.0100620809938,0.000220677727862,0.33565485797,-0.0882507743522,9.63638234327
7817569,-0.00423720567959,-0.0175210637894,-7.42524160347e-05,-0.00493949898849,-0.00986845914945,0.000132406636717,0.337862409411,-0.0816808845332,9.63673349898
7817649,-0.00476601881151,-0.0180631192852,-8.61041927414e-05,-0.00594352982333,-0.00932659598136,7.94439820303e-05,0.348284906584,-0.0918647404367,9.63550767141
7817726,-0.00490888881744,-0.0180016511819,-8.83834915161e-05,-0.00654594832423,-0.00900147808052,4.76663892182e-05,0.347116379742,-0.0946231716546,9.6359692757
7817807,-0.00525768988538,-0.0173517425508,-9.1245080243e-05,-0.00648170936331,-0.00880640734001,2.85998335309e-05,0.334444255335,-0.101306053872,9.63217609545
7817888,-0.00509898249535,-0.01679967111,-8.56744339036e-05,-0.0060174759253,-0.0086893648957,1.71599001185e-05,0.324207358865,-0.0983725983875,9.64450481743
7817968,-0.00485888300692,-0.0165561803989,-8.04565213427e-05,-0.00531324580103,-0.00904482949058,1.02959400711e-05,0.319501741979,-0.0937394831047,9.64448002546
7818048,-0.00486886406036,-0.0171720819644,-8.36218544577e-05,-0.00489070772646,-0.0101094883704,0.00170893780989,0.331043581809,-0.0938326559273,9.63417008315
7818128,-0.00453901023337,-0.017628399836,-8.00287478953e-05,-0.00506287494319,-0.0103225936369,0.00102536268593,0.339644626868,-0.0874242151384,9.62846295809
7818208,-0.00448399250721,-0.017828333476,-7.99556258481e-05,-0.00516617527322,-0.0108761468582,0.000615217611561,0.34384757324,-0.0864521926573,9.63820679219
7818286,-0.00435412476202,-0.0178326366417,-7.76586100846e-05,-0.00522815547124,-0.0120596589139,0.000369130566936,0.344932820067,-0.0841930380065,9.66631916809
7818366,-0.00384888315279,-0.0184021319644,-7.08401762914e-05,-0.00526534359006,-0.0123440760859,0.000221478340162,0.356118455468,-0.0744578394054,9.67073674499
7818447,-0.00447158371367,-0.018488270785,-8.268681068e-05,-0.00486196639988,-0.0116633462662,0.000132887004097,0.357083752724,-0.08633381253,9.65160005603
7818545,-0.00439402523005,-0.0182944278316,-8.04004095941e-05,-0.00504563014724,-0.0108292183129,7.97322024583e-05,0.35335336809,-0.0848402704281,9.65208905095
7818628,-0.00483122173934,-0.0175715663161,-8.49062333647e-05,-0.00473013833419,-0.0107544316023,4.7839321475e-05,0.339383549174,-0.0932815316417,9.65214302774
7818687,-0.00459550890364,-0.0172541746732,-7.93043567087e-05,-0.00454084324636,-0.010709559576,2.8703592885e-05,0.333395859485,-0.0887694817291,9.6564849768
7818767,-0.00408366504131,-0.0172176362888,-7.03220701827e-05,-0.00485295625513,-0.0106826363602,1.7222155731e-05,0.332676287664,-0.0788796468012,9.65621710424
7818847,-0.00419788234618,-0.0167989564131,-7.05306170259e-05,-0.00461453399892,-0.0106664824308,1.03332934386e-05,0.324583099258,-0.0810860314889,9.65629580088
7818927,-0.00387580274377,-0.0171937406225,-6.66499003137e-05,-0.00276872039935,-0.0106567900731,6.19997606315e-06,0.331698194516,-0.074748416989,9.6412595484
7819008,-0.00352389024497,-0.0171247134568,-6.03548359536e-05,-0.00336399248546,-0.0106509746585,3.71998563789e-06,0.329742327354,-0.0678333861309,9.6231398306
7819086,-0.00354036890673,-0.0174154650471,-6.16669100466e-05,-0.00414684579859,-0.0106474854097,2.23199138274e-06,0.335751412037,-0.0682333507704,9.63477349553
7819177,-0.00369897678102,-0.0180721358091,-6.68597875341e-05,-0.00461655778646,-0.0106453918604,1.33919482964e-06,0.348694249322,-0.0713463715462,9.64223253482
7819246,-0.0043292427285,-0.0180760979483,-7.82693375551e-05,-0.00489838497919,-0.0106441357309,8.03516897785e-07,0.34879850638,-0.0835092511504,9.64287723573
7819328,-0.0045237005065,-0.0176791342308,-7.99884285386e-05,-0.00506748129482,-0.00979200193023,0.00170324235599,0.340960195137,-0.0872156764226,9.63799681263
7819407,-0.00463137761555,-0.0175402293734,-8.12487969275e-05,-0.0051689390842,-0.00928072164983,0.00272470565944,0.337933149553,-0.08920011142,9.62812537396
7819486,-0.00447698258825,-0.0171788962759,-7.6921741941e-05,-0.00522981375783,-0.00939964354306,0.00163482339566,0.331328518882,-0.0863206295961,9.63872250221
7819567,-0.00478592219538,-0.0175609502797,-8.40592672484e-05,-0.00526633856201,-0.00989668674045,0.000980894037398,0.338618488282,-0.0922543858143,9.63622223301
7819646,-0.00508605456401,-0.0178251996848,-9.0675518235e-05,-0.00528825344452,-0.0101949126589,0.000588536422439,0.343471310255,-0.0979694210394,9.62921540768
7819728,-0.00449360595779,-0.0171076663879,-7.68871404104e-05,-0.00487571231256,-0.01037384821,0.000353121853463,0.329623591817,-0.0865543918814,9.6290814553
7819808,-0.00473149470974,-0.0172860313242,-8.18019042287e-05,-0.00462818763338,-0.0104812095406,0.000211873112078,0.333285969055,-0.0911975423554,9.63546542836
7819887,-0.00419537747723,-0.0172987553303,-7.25863090172e-05,-0.00447967282588,-0.0109713164004,0.000127123867247,0.333328613904,-0.080815323509,9.62971900555
7819968,-0.00407031508698,-0.017061882059,-6.94579221897e-05,-0.00439056394137,-0.0116910705778,7.62743203481e-05,0.328805217659,-0.0784167148573,9.63105955518
7820047,-0.00407886817223,-0.0177367725886,-7.23579419417e-05,-0.00433709861067,-0.0112715429613,4.57645922089e-05,0.342132331035,-0.0786534908285,9.63976475044
7820126,-0.00423629314898,-0.0177089301213,-7.50326592198e-05,-0.00430501941225,-0.0110198263914,2.74587553253e-05,0.341509473084,-0.0816685984033,9.63732642229
7820207,-0.00423254835826,-0.0180941528461,-7.65976033572e-05,-0.0042857718932,-0.0108687964495,1.64752531952e-05,0.348797203626,-0.0815623016201,9.63322980357
7820288,-0.00455229453711,-0.0177016339023,-8.05965151861e-05,-0.00427422338177,-0.0103524884228,9.88515191711e-06,0.342156514314,-0.0879628680326,9.65950225226
7820367,-0.00415618886965,-0.0182131919376,-7.5710678278e-05,-0.00511867439783,-0.0104683936683,5.93109115027e-06,0.352058470356,-0.0803110399114,9.65970341068
7820447,-0.00408501149909,-0.0178877054786,-7.30837858992e-05,-0.00562534500747,-0.0109636268771,3.55865469016e-06,0.345310375182,-0.0788324051968,9.64713483694
7820526,-0.00421519268284,-0.0177380149487,-7.47815809486e-05,-0.00592934737326,-0.0112607668023,2.1351928141e-06,0.342219198742,-0.0812971066923,9.64150905402
7820608,-0.00410885618399,-0.0175315531563,-7.20463118131e-05,-0.00568605873126,-0.011013360696,1.28111568846e-06,0.337970291218,-0.0791846250994,9.63406344144
7820686,-0.00438002198627,-0.0171321556087,-7.5050953409e-05,-0.00554008554607,-0.0108649170322,7.68669413075e-07,0.330153703051,-0.084381480626,9.63079317473
7820767,-0.00433116527204,-0.0171519043467,-7.42993594444e-05,-0.00545250163495,-0.0112015408954,4.61201647845e-07,0.330491573637,-0.0834294511198,9.6295492752
7820846,-0.00458223906702,-0.0173540133232,-7.95330502344e-05,-0.00497426122682,-0.0118292052748,2.76720988707e-07,0.334764438811,-0.0883648972344,9.64029510345
7820927,-0.00483567984977,-0.0177245124568,-8.57245370925e-05,-0.00468731698194,-0.0122058039024,1.66032593224e-07,0.34187714107,-0.0932415262312,9.63908115509
7821008,-0.00458610727657,-0.0179177154489,-8.21866237529e-05,-0.00451515043501,-0.012431763079,9.96195559345e-08,0.345905342259,-0.0885060583169,9.64745075238
7821088,-0.00448994182774,-0.0181601987015,-8.15525070173e-05,-0.00270909026101,-0.0121416485235,5.97717335607e-08,0.350477044467,-0.0866224582323,9.64433222511
7821167,-0.00463887820298,-0.0181015857081,-8.39857163003e-05,-0.0016254541566,-0.0115418897287,3.58630401364e-08,0.348671082637,-0.0893230208378,9.62570169713
7821248,-0.00384799129435,-0.0177879489322,-6.84592112021e-05,-0.00267803273981,-0.0120334145748,2.15178240819e-08,0.343038522385,-0.07418394678,9.63750771627
7821327,-0.00372063067549,-0.0176934384477,-6.58415126894e-05,-0.0037352699512,-0.0119026394209,1.29106944491e-08,0.341574347562,-0.0718042669938,9.64770378992
7821406,-0.00399662679322,-0.0176222654051,-7.04411193099e-05,-0.00436961227803,-0.0113984842672,7.74641666947e-09,0.33997758217,-0.0770802237705,9.64137158548
7821486,-0.00418048932077,-0.0166963758142,-6.98093620759e-05,-0.00475021767413,-0.0110959911749,4.64785000168e-09,0.321541850816,-0.0804852180025,9.62464357384
7821570,-0.0047103259751,-0.0165603047657,-7.80159979627e-05,-0.00540427097325,-0.0109144953196,2.78871000101e-09,0.318860117814,-0.0906685001863,9.62274705251
7821646,-0.00445357960931,-0.0166308753981,-7.40779076762e-05,-0.00579670295272,-0.0120826679908,1.6732260006e-09,0.320363540171,-0.0857651418598,9.62711580353
7821726,-0.00467073114737,-0.0169274496014,-7.90757589602e-05,-0.0060321621404,-0.0127835715935,1.00393560036e-09,0.326293417071,-0.0900057318444,9.63332835663
7821806,-0.00501411102647,-0.0171992013637,-8.6252548179e-05,-0.00574774759155,-0.0132041137551,6.02361360218e-10,0.331527284374,-0.0966202286574,9.63298574567
7821894,-0.00533442453679,-0.017929064194,-9.56579775787e-05,-0.00515140880078,-0.0130307489906,0.00170276060726,0.345441512226,-0.102743708239,9.62823119593
7821970,-0.00493248089285,-0.0181323852493,-8.94534391121e-05,-0.00479360552632,-0.0129267301319,0.00272441661021,0.349959326281,-0.0951650481858,9.64477149954
7822046,-0.0046044577519,-0.0182010248171,-8.38206238849e-05,-0.00457892356164,-0.0111615585708,0.00163464996612,0.350754653386,-0.0887024908256,9.63027482477
7822126,-0.0042148357226,-0.018043788545,-7.60646640119e-05,-0.00445011438283,-0.0101024556342,0.000980789979675,0.347879967324,-0.0812336539192,9.63474492904
7822209,-0.00406674122685,-0.0180176324758,-7.32855516055e-05,-0.00437282887555,-0.00946699387222,0.000588473987805,0.347591676684,-0.0784282929374,9.64077887393
7822296,-0.00345999692443,-0.0172742994193,-5.97783004745e-05,-0.00475214763264,-0.00908571681503,0.000353084392683,0.333053492338,-0.0666894293757,9.63554069472
7822368,-0.00280807008151,-0.0171647823913,-4.82072041978e-05,-0.00497973888689,-0.00970833070364,0.00021185063561,0.33103434638,-0.0541394474204,9.63838329134
7822449,-0.0025917764477,-0.0164842648681,-4.27294788712e-05,-0.00511629363945,-0.0100818990368,0.000127110381366,0.317851850504,-0.0499613405714,9.63697638716
7822527,-0.00287348630289,-0.0163704673889,-4.70468126353e-05,-0.00519822649098,-0.0103060400367,7.62662288195e-05,0.315449016796,-0.0553553419405,9.63062558083
7822615,-0.00368853594141,-0.0165101971166,-6.09071717708e-05,-0.0052473862019,-0.0108662146981,4.57597372917e-05,0.318077459394,-0.0710415913948,9.6284910382
7822687,-0.00462391436544,-0.0176693625064,-8.17152501021e-05,-0.00570257208991,-0.0120536996179,2.7455842375e-05,0.340484079396,-0.0890724670439,9.62984393444
7822767,-0.00501730144529,-0.0185654143058,-9.31655105616e-05,-0.00554999356126,-0.0127661905697,1.6473505425e-05,0.358237614386,-0.0967785302752,9.64238726032
7822847,-0.0053404458303,-0.0190055567698,-0.000101517931225,-0.0050327563826,-0.0127679950794,9.88410325501e-06,0.366974374051,-0.103078109376,9.64847673486
7822927,-0.00551641110348,-0.0191394377178,-0.000105601958136,-0.00472241407541,-0.0123433877237,5.930461953e-06,0.370061648357,-0.106618436671,9.66146780605
7823007,-0.00542995217227,-0.0189569969278,-0.000102955606393,-0.00283344844525,-0.0112372431874,3.5582771718e-06,0.366407349121,-0.104911910391,9.65824912113
7823089,-0.0051343156513,-0.0182555841621,-9.37467903792e-05,-0.003402829313,-0.0101478664041,2.13496630308e-06,0.352483181445,-0.099099591303,9.64865646487
7823171,-0.00478209729372,-0.0174095981001,-8.32679644732e-05,-0.00374445783365,-0.00991993039563,1.28097978185e-06,0.335988395195,-0.0922603175259,9.64457681227
7823247,-0.00448616736634,-0.0170349125751,-7.64333291903e-05,-0.00224667470019,-0.00978316879054,7.68587869109e-07,0.328485725106,-0.0864808120976,9.63686177706
7823327,-0.00365988782392,-0.0169108002281,-6.19008982937e-05,-0.00134800482011,-0.00970111182748,4.61152721466e-07,0.326138904546,-0.0705632602078,9.63845768025
7823407,-0.00430697022092,-0.0166515769599,-7.17284566027e-05,-0.00251156313792,-0.010928947834,2.76691632879e-07,0.32113950972,-0.0830393843473,9.6384575415
7823487,-0.00429698522363,-0.016852540437,-7.24260716933e-05,-0.0032096981286,-0.0120913394994,1.66014979728e-07,0.325083057638,-0.0828636135185,9.64037281958
7823567,-0.00446344888945,-0.0169927527735,-7.58579923894e-05,-0.00362857912301,-0.0127887744987,9.96089878366e-08,0.327928026722,-0.0861100333455,9.64439502842
7823646,-0.00407883407299,-0.0180289157134,-7.35495221353e-05,-0.00430559778111,-0.0127815454367,5.97653927019e-08,0.348070360955,-0.0787204987671,9.64800545455
7823727,-0.00416426895857,-0.0183296005425,-7.63428745322e-05,-0.00428611891452,-0.0123515179381,3.58592356212e-08,0.353451996846,-0.0802722821704,9.6362853406
7823820,-0.0040404434394,-0.0182195024909,-7.36276919837e-05,-0.00427443159456,-0.0116678113775,2.15155413727e-08,0.351174314563,-0.0778514698882,9.63212631422
7823887,-0.00435182841578,-0.0178943622479,-7.78864029238e-05,-0.00469310926405,-0.0112575874411,1.29093248236e-08,0.344779881706,-0.0838210076653,9.62867321773
7823967,-0.00453853762751,-0.0177355260195,-8.05068443966e-05,-0.00451862580428,-0.0105857630178,7.74559489417e-09,0.341661482491,-0.0874027303316,9.62708020017
7824047,-0.00483686102262,-0.0174281456734,-8.43113105425e-05,-0.00441393572841,-0.0101826683639,4.6473569365e-09,0.335720300139,-0.0931430664216,9.62660322997
7824126,-0.00480726304567,-0.0172909196445,-8.31353887572e-05,-0.00477681174436,-0.0103665016329,2.7884141619e-09,0.332873851226,-0.0925171252534,9.62081038402
7824207,-0.0043920763504,-0.0167019123606,-7.33670159428e-05,-0.00456884729246,-0.0104768015944,1.67304849714e-09,0.321349755072,-0.0844801152399,9.6156587353
7824288,-0.0048842461644,-0.0170501532332,-8.32902468906e-05,-0.00444406862133,-0.0109686716327,1.00382909828e-09,0.328321667008,-0.0940231191928,9.62334165353
7824367,-0.00515328338137,-0.0171933215633,-8.86163343939e-05,-0.00436920141864,-0.0116894837172,6.02297458971e-10,0.331307713339,-0.0992700812325,9.6298667658
7824447,-0.00528531230612,-0.0176617264077,-9.33636074815e-05,-0.00432428109703,-0.0125476610293,3.61378475382e-10,0.340760786451,-0.101939418124,9.64168269864
7824526,-0.00529319757174,-0.0183376117254,-9.70822867809e-05,-0.00429732890407,-0.0130625674166,2.16827085229e-10,0.353854655464,-0.102104499263,9.64278675419
7824610,-0.00524045567244,-0.0184988571733,-9.69603647936e-05,-0.00428115758829,-0.0129458211875,1.30096251138e-10,0.356683153386,-0.101006447117,9.63506948172
7824687,-0.00470796535647,-0.0184695846418,-8.69699640864e-05,-0.00427145479882,-0.0124500833886,7.80577506826e-11,0.356225470645,-0.0907708091879,9.63810056354
7824767,-0.00412707732074,-0.0186343974003,-7.69196102893e-05,-0.00426563312514,-0.0121526407092,4.68346504096e-11,0.35954216349,-0.0796016029444,9.64183457396
7824846,-0.00428330460902,-0.0186525514172,-7.99091949962e-05,-0.00255937987508,-0.0119741751016,2.81007902457e-11,0.360335078368,-0.0827163060049,9.65365178686
7824928,-0.0037721819368,-0.0185142780533,-6.9851695331e-05,-0.00153562792505,-0.0118670957371,1.68604741474e-11,0.357698365136,-0.0728535397065,9.65475661045
7825007,-0.00339599098063,-0.0183582258558,-6.23552376789e-05,-0.00262413700088,-0.0109514679954,1.01162844885e-11,0.354200975869,-0.0654993589313,9.64177255513
7825089,-0.00342756360293,-0.0175657567801,-6.0217393415e-05,-0.00370293250784,-0.00997640128893,6.06977069308e-12,0.338934433177,-0.0661146739525,9.64284066809
7825167,-0.0037730779235,-0.0177408999009,-6.69488110794e-05,-0.00435020981201,-0.00981705132652,3.64186241585e-12,0.34198493603,-0.0727087872817,9.63342588889
7825248,-0.00423500276653,-0.0180036520859,-7.62585604872e-05,-0.00473857619452,-0.0101471314105,2.18511744951e-12,0.347406540231,-0.0816930787655,9.643099912
7825327,-0.00466045576885,-0.017875608956,-8.3322703621e-05,-0.00497159602402,-0.0107708695224,1.31107046971e-12,0.345152838934,-0.089956695648,9.64914374603
7825407,-0.00515448967695,-0.0177610955776,-9.15650443089e-05,-0.00511140792172,-0.0107194223281,7.86642281823e-13,0.342842937491,-0.0994638489317,9.64630570196
7825487,-0.00533730838685,-0.0170782982112,-9.11667395728e-05,-0.00476960499888,-0.0106885540115,4.71985369094e-13,0.329725408491,-0.103013359408,9.64843359818
7825567,-0.00522676174014,-0.0174472953145,-9.12079853358e-05,-0.00456452324518,-0.0106700330215,2.83191221456e-13,0.336698941383,-0.100833502705,9.64396425192
7825646,-0.00530687195041,-0.0172886766533,-9.17638009956e-05,-0.00273871394711,-0.011084610489,1.69914732874e-13,0.333700456139,-0.102398630676,9.64583162733
7825726,-0.00552707410656,-0.0173745858635,-9.60465895415e-05,-0.00164322836826,-0.0117590470309,1.01948839724e-13,0.335492667482,-0.106689589782,9.64958567439
7825809,-0.00541561375735,-0.0168826737798,-9.14444148329e-05,-0.00268869726681,-0.0121637089561,6.11693038346e-14,0.325794086817,-0.104475761926,9.64393723716
7825903,-0.00533519826372,-0.0165963426143,-8.85582362237e-05,-0.00331597860593,-0.0128321961727,3.67015823007e-14,0.320214358585,-0.102908045046,9.64246353614
7825967,-0.00521181309447,-0.0164224901575,-8.56036567049e-05,-0.00369234740941,-0.0136589785641,2.20209493804e-14,0.316866521645,-0.100530893922,9.64277641636
7826046,-0.00490373293054,-0.0171057094855,-8.38951150246e-05,-0.00391816869149,-0.0141550479989,1.32125696283e-14,0.32994128994,-0.0945556200936,9.639372842
7826126,-0.00483256862622,-0.0177093157925,-8.55959071994e-05,-0.0023509012149,-0.0144526896598,7.92754177696e-15,0.341377453407,-0.0931252372905,9.63326055457
7826223,-0.00393883140642,-0.0180080796582,-7.09428443077e-05,-0.00141054072894,-0.0150569647178,4.75652506618e-15,0.34752089099,-0.0759864363196,9.64395839207
7826286,-0.00322418815563,-0.0187090184675,-6.03322693975e-05,-0.000846324437362,-0.0149938396912,2.85391503971e-15,0.360544340014,-0.0621118532469,9.63026580062
7826367,-0.00295356736732,-0.01890284465,-5.5841046189e-05,-0.000507794662417,-0.0145302746137,1.71234902382e-15,0.364288266606,-0.0568995655614,9.63042995156
7826447,-0.0027262348847,-0.0186522082444,-5.08593377693e-05,-0.0020074370433,-0.0134007554443,1.02740941429e-15,0.359830857913,-0.05257509212,9.6405840891
7826532,-0.00250526740919,-0.0184924413934,-4.63365797733e-05,-0.00290722247183,-0.0122973538812,6.16445648576e-16,0.356677572365,-0.0483044668931,9.63877570615
7826607,-0.00273035452699,-0.0181198297267,-4.94818674673e-05,-0.00429847385187,-0.0116353129433,3.69867389146e-16,0.34975777755,-0.0526852765714,9.64630980235
7826686,-0.00377536071829,-0.0173112084502,-6.53663175802e-05,-0.00555891474136,-0.0116637784421,2.21920433488e-16,0.333874312526,-0.0727914344975,9.63861983161
7826767,-0.00402874294953,-0.0172152925392,-6.93668313899e-05,-0.00631517927505,-0.0116808577413,1.33152260093e-16,0.332005678824,-0.0776725242727,9.63807599198
7826854,-0.0047707741042,-0.0177766875403,-8.48229298683e-05,-0.00676893799526,-0.0121167953823,7.98913560555e-17,0.342376666572,-0.0918539259406,9.62482099924
7826926,-0.0056706270488,-0.0179806626941,-0.000101979759245,-0.00661550316593,-0.012378357967,4.79348136333e-17,0.346444477726,-0.109221313084,9.62836017157
7827008,-0.00636710161104,-0.0184742590236,-0.000117649948975,-0.00652344226833,-0.0121096054563,0.00170276024585,0.356307189565,-0.122754207528,9.63742685978
7827086,-0.00655885023991,-0.0184766972113,-0.000121209189889,-0.00604251566831,-0.0119483539498,0.00102165614751,0.355999892353,-0.12632496104,9.62778340224
7827166,-0.00649662120913,-0.0181806257214,-0.000118134658363,-0.0057539597083,-0.011851603046,0.000612993688505,0.349590589708,-0.124876110657,9.60858979843
7827246,-0.00568134365499,-0.0183460363411,-0.000104249365935,-0.00515513607083,-0.0109421723807,0.000367796213103,0.353406453434,-0.109402170301,9.62604347622
7827330,-0.00511254525627,-0.0178824678546,-9.14407435773e-05,-0.00479584188834,-0.0103965139816,0.000220677727862,0.344443223867,-0.0984418649245,9.62550235527
7827407,-0.00473110759019,-0.0174820810567,-8.27231746465e-05,-0.00458026537885,-0.0100691189421,0.000132406636717,0.336910504633,-0.0911474212008,9.63092376667
7827487,-0.0040925303422,-0.0168078858478,-6.8797077648e-05,-0.00274815922731,-0.0102983719799,7.94439820303e-05,0.324011167282,-0.0788698894881,9.63417661352
7827567,-0.00359632938856,-0.0169055406227,-6.08069758228e-05,-0.00164889553639,-0.0112873039255,4.76663892182e-05,0.326087791678,-0.0693485889663,9.63995904428
7827647,-0.00379815004599,-0.0171626432684,-6.51963674965e-05,-0.000989337321832,-0.0123063531543,0.00215705014084,0.330925068805,-0.0732126152938,9.63624589776
7827726,-0.00414332392079,-0.0175295958357,-7.26425794784e-05,-0.00229636263895,-0.013343472753,0.00342268039181,0.337897577904,-0.0798405940786,9.63306032918
7827806,-0.00461835400313,-0.0182988354899,-8.45255547912e-05,-0.00350626789068,-0.0143914345738,0.00375636848094,0.353094411,-0.0890846250019,9.64264115601
7827887,-0.004874746416,-0.0189806816431,-9.25437816836e-05,-0.00380652098026,-0.0141688315433,0.00225382108856,0.365803813348,-0.0939127830578,9.63043313965
7827967,-0.00476489032106,-0.019341909086,-9.21803668137e-05,-0.00441236289546,-0.0136095796635,0.00135229265314,0.372711194259,-0.091781854405,9.62885441382
7828046,-0.00496824804098,-0.0192444281355,-9.56299831152e-05,-0.00520155810605,-0.0124226484127,0.000811375591882,0.371109538821,-0.0957705408656,9.63604746397
7828126,-0.00509203384736,-0.0189823303676,-9.66773421716e-05,-0.00524938517094,-0.0117104896623,0.000486825355129,0.366078402736,-0.098163752742,9.63677199156
7828206,-0.00470738014084,-0.0191997037715,-9.03979695627e-05,-0.00485239134841,-0.0108575043505,0.000292095213078,0.370242326065,-0.0907411337253,9.63600960729
7828286,-0.00445725814416,-0.0180000327732,-8.0244590905e-05,-0.0046141950549,-0.009920023102,0.000175257127847,0.346643881967,-0.0858087219832,9.62382058859
7828382,-0.00431803708693,-0.0171367848826,-7.40088308073e-05,-0.00447127727879,-0.0093575343529,0.000105154276708,0.329851193682,-0.083088695104,9.61938021937
7828446,-0.00424831404281,-0.0168359041303,-7.15349926877e-05,-0.00438552661312,-0.00987142122636,6.30925660248e-05,0.324803404198,-0.0819355193085,9.6416156951
7828526,-0.00399897103277,-0.0167162343017,-6.68576133091e-05,-0.00475976627518,-0.0106054434119,3.78555396149e-05,0.323690091835,-0.0774128911749,9.67746247614
7828609,-0.00425242679004,-0.017081369241,-7.26485285371e-05,-0.00498431007242,-0.0114715467847,2.27133237689e-05,0.329007608568,-0.0818819192753,9.62594739413
7828688,-0.00409279250638,-0.0182261845246,-7.46090099968e-05,-0.00511903635076,-0.0124168988698,1.36279942614e-05,0.351112311723,-0.0788172521511,9.62688122701
7828768,-0.00415492100247,-0.0183801044457,-7.63814446212e-05,-0.00519987211777,-0.0134098001824,8.17679655681e-06,0.353361805979,-0.0798514938688,9.60733023279
7828847,-0.00430994866763,-0.0184299344057,-7.94463031097e-05,-0.00482268351651,-0.013154160847,4.90607793409e-06,0.354472082367,-0.0828662405596,9.61140136721
7828928,-0.0040151051497,-0.0183145477606,-7.35477639909e-05,-0.00459637035575,-0.0130007772457,2.94364676045e-06,0.352504626373,-0.0772530634275,9.61839303102
7829007,-0.00382384261409,-0.0186450942554,-7.13088235229e-05,-0.00488627252076,-0.0124830570235,1.76618805627e-06,0.359225018256,-0.0736457369823,9.62785527296
7829086,-0.004427347854,-0.0181513908762,-8.03765516255e-05,-0.00463452375831,-0.0113210447673,1.05971283376e-06,0.34913146359,-0.0851282905781,9.61198480318
7829167,-0.00430596903846,-0.0176855755931,-7.61661599196e-05,-0.00448347450083,-0.0101981473521,6.35827700258e-07,0.340681129131,-0.0829198564269,9.62664395808
7829249,-0.00482230010224,-0.016804111815,-8.10468566232e-05,-0.0026900847005,-0.0103757890259,3.81496620155e-07,0.323639920154,-0.092847543739,9.62514438388
7829327,-0.0051569421548,-0.0160013305819,-8.25296002604e-05,-0.0016140508203,-0.0113337541531,0.00170298914382,0.308147951116,-0.0992829964582,9.62448405953
7829407,-0.00489206671683,-0.0166316742657,-8.1375489803e-05,-0.00096843049218,-0.0136112934752,0.00272455373214,0.3206400048,-0.0942857219472,9.63486177239
7829486,-0.00450929613388,-0.0170439521379,-7.68681751066e-05,-0.000581058295308,-0.0158291971915,0.00376318254659,0.328853497509,-0.0869777942523,9.6425249211
7829578,-0.004228497984,-0.0175438327421,-7.41961441599e-05,-0.000348634977185,-0.0175856294827,0.00438635983527,0.338809416621,-0.0816353569713,9.65119295315
7829646,-0.00375092366871,-0.0184650710886,-6.92733704513e-05,-0.000209180986311,-0.0182137987959,0.00263181590116,0.356753976388,-0.0724443904523,9.65495725138
7829727,-0.0031464569929,-0.019339886831,-6.08638071595e-05,-0.00182826883763,-0.0181650103224,0.0015790895407,0.373266796233,-0.0607048862245,9.64452656152
7829807,-0.00279837219664,-0.0194882004057,-5.45458108303e-05,-0.00279972154843,-0.0168586670539,0.000947453724418,0.375513042828,-0.0539006038538,9.62869134097
7829907,-0.00267571860332,-0.0198233891459,-5.30524260886e-05,-0.00338259317491,-0.0152234809699,0.000568472234651,0.381649194105,-0.0514939755936,9.62038730946
7829966,-0.00252528814002,-0.0196606823395,-4.96586448818e-05,-0.00458369627372,-0.0133909891966,0.00034108334079,0.378627120223,-0.0486134776413,9.62330575604
7830046,-0.00290493033542,-0.0191976808262,-5.57784404248e-05,-0.00573004819446,-0.0118658040711,0.000204650004474,0.370110111245,-0.0559831451785,9.63391537013
7830126,-0.00328409329491,-0.0185019843554,-6.07729735564e-05,-0.00599216928545,-0.0109506929958,0.00182555024853,0.356620200048,-0.0632779876931,9.63214085294
7830214,-0.00442716691171,-0.0179310779685,-7.93974186361e-05,-0.00572375187858,-0.0104016263506,0.00279809039497,0.345892631503,-0.0853719854869,9.63993468876
7830287,-0.00520425340027,-0.0177432415105,-9.23561153019e-05,-0.00598839149592,-0.0100721863635,0.00167885423698,0.342089712203,-0.100304325325,9.63479476345
7830367,-0.00524687816907,-0.0176005562113,-9.23635533996e-05,-0.00572148520486,-0.00987452237129,0.00100731254219,0.33932912029,-0.101123443584,9.63458385026
7830447,-0.00482908982262,-0.0170751569495,-8.24704521402e-05,-0.00513565136877,-0.0106073040989,0.000604387525313,0.329771899664,-0.0932352087285,9.6516955543
7830527,-0.00463729459873,-0.0166307803126,-7.71333250369e-05,-0.00478415106711,-0.0110469731354,0.000362632515188,0.320925105131,-0.0894599484793,9.64400606427
7830606,-0.00402816727326,-0.0171944892075,-6.9273082041e-05,-0.00457325088611,-0.0121621546802,0.000217579509113,0.331418759367,-0.0776179856891,9.6326886056
7830687,-0.00385968383533,-0.0176144929238,-6.79974299395e-05,-0.00444671077752,-0.0128312636072,0.000130547705468,0.339390893072,-0.0743435306713,9.62901059256
7830766,-0.00359654787842,-0.0179766529283,-6.46647607568e-05,-0.00437078671236,-0.0132327289633,0.00178108886913,0.346328954788,-0.0692663955024,9.6277614654
7830847,-0.00353426869649,-0.0188070395987,-6.64813051761e-05,-0.00432523227326,-0.013473608177,0.00106865332148,0.362702220285,-0.0681354757292,9.63730705624
7830926,-0.00398744652077,-0.0190002641482,-7.57768192465e-05,-0.00429789960981,-0.0131924456437,0.000641191992886,0.366061835101,-0.0767943103398,9.62747209996
7831007,-0.00365984129156,-0.0189028266017,-6.9194172209e-05,-0.00470719007319,-0.0117466779394,0.000384715195732,0.364246881334,-0.0704974431375,9.6292325715
7831086,-0.00367580379544,-0.0186517571714,-6.85725921361e-05,-0.00495276435123,-0.0108792173168,0.000230829117439,0.359327186418,-0.0707894656384,9.62717639226
7831168,-0.0042293065423,-0.0182389292641,-7.71515468428e-05,-0.00467441885658,-0.00993305088178,0.000138497470463,0.351586966147,-0.0814991664436,9.6331252897
7831246,-0.00454901932891,-0.0177447043885,-8.07345506192e-05,-0.0045074115598,-0.00979104108222,8.30984822781e-05,0.342154430665,-0.0876855667607,9.63597636767
7831331,-0.00477328483149,-0.017613125782,-8.40864682618e-05,-0.00440720718173,-0.0105572153254,4.98590893668e-05,0.339128531202,-0.091876247283,9.62212470366
7831407,-0.00468021272727,-0.0177681758439,-8.31728842994e-05,-0.00264432430904,-0.0114426099328,2.99154536201e-05,0.342101394844,-0.0900810926081,9.62171457073
7831488,-0.00496795708257,-0.0177821474916,-8.83560068376e-05,-0.00158659458542,-0.0123995367587,1.79492721721e-05,0.342688012199,-0.0957077644516,9.63056645728
7831566,-0.00539129885809,-0.017687095028,-9.53727209945e-05,-0.000951956751253,-0.0133993829157,1.07695633032e-05,0.340885201118,-0.103872170878,9.63132860606
7831646,-0.00481488949055,-0.0181970297984,-8.76322139539e-05,-0.000571174050752,-0.0144249806713,6.46173798194e-06,0.350577421941,-0.0927296636108,9.62747633234
7831728,-0.00465565559128,-0.0187155665554,-8.71494414272e-05,-0.000342704430451,-0.0146146492633,3.87704278917e-06,0.360462897256,-0.0896354617407,9.6244467076
7831806,-0.00449722253672,-0.018899835768,-8.50128123196e-05,-0.000205622658271,-0.014302760357,2.3262256735e-06,0.363999980785,-0.0865818397885,9.62406545376
7831887,-0.0035299920616,-0.0189769327078,-6.70009048855e-05,-0.000123373594962,-0.0141156270132,1.3957354041e-06,0.365643390571,-0.0679902549962,9.62838568461
7831966,-0.0032240838998,-0.0190888730544,-6.15556643873e-05,-7.40241569774e-05,-0.0135776569455,8.3744124246e-07,0.367826537272,-0.0621025477731,9.62906246179
7832050,-0.00290318586801,-0.0192758627351,-5.59720477201e-05,-0.00174717474003,-0.0124034947819,5.02464745476e-07,0.371530626953,-0.0559363016131,9.63162330959
7832127,-0.00315809957775,-0.0189169140793,-5.97524886603e-05,-0.00317675515133,-0.0112733074223,3.01478847286e-07,0.364655114453,-0.0608556798936,9.63292039811
7832208,-0.00330407800783,-0.0189439944462,-6.26040118501e-05,-0.00446019345957,-0.0101695049451,1.80887308371e-07,0.364599949775,-0.0635678866959,9.6176575001
7832286,-0.00339735415604,-0.0183998359439,-6.25217044934e-05,-0.00437887632159,-0.0099329135202,1.08532385023e-07,0.354511203996,-0.0654346309433,9.62837163507
7832367,-0.0036516257719,-0.0178239381791,-6.50971274993e-05,-0.00475577610026,-0.00979095866528,6.51194310137e-08,0.343669553208,-0.070385400148,9.63575779671
7832447,-0.00379080362383,-0.0179216394043,-6.79488170066e-05,-0.00498191596747,-0.0101314758138,3.90716586082e-08,0.345783688712,-0.0731164415048,9.64210485503
7832526,-0.00426619212706,-0.0175515703322,-7.48905892029e-05,-0.00469190982633,-0.0107614761644,2.34429951649e-08,0.338193623872,-0.0821770914654,9.62939309857
7832606,-0.00447247464446,-0.0176328067907,-7.88753332767e-05,-0.00451790614165,-0.0111394763747,1.4065797099e-08,0.339864509284,-0.0861769604456,9.63230053199
7832688,-0.00480572336369,-0.0173403952522,-8.33466371469e-05,-0.00441350393084,-0.0113662765009,8.43947825937e-09,0.334402696049,-0.0926470246561,9.63739687437
7832766,-0.0045223126554,-0.0176900304378,-8.0013187629e-05,-0.00435086260435,-0.0110766665152,5.06368695562e-09,0.341181255081,-0.0871916767077,9.6382998983
7832847,-0.00439532694149,-0.0178984908336,-7.86830836848e-05,-0.00261051756261,-0.0113285905852,3.03821217337e-09,0.344769550167,-0.0846367284367,9.62615244387
7832928,-0.00402859020892,-0.0181292569989,-7.3047945622e-05,-0.00156631053757,-0.0114797450272,1.82292730402e-09,0.34931672888,-0.0775970956558,9.62891961817
7833008,-0.0039439875484,-0.0180999574233,-7.13982585753e-05,-0.000939786322539,-0.0111447476309,1.09375638241e-09,0.348932573949,-0.0760069378134,9.63393180508
7833088,-0.00386623323488,-0.0179109320908,-6.92594689666e-05,-0.000563871793524,-0.0109437491932,6.56253829449e-10,0.345589618832,-0.0745740027759,9.64244578105
7833171,-0.00395540546061,-0.0179803561034,-7.11316545427e-05,-0.00246677338342,-0.0108231501305,3.93752297669e-10,0.347175148252,-0.0763478635796,9.64923010779
7833250,-0.00376282608593,-0.0183287558857,-6.89799970133e-05,-0.00403420439883,-0.0111764807544,2.36251378602e-10,0.353872549889,-0.0726237767415,9.64827288035
7833326,-0.00359863961178,-0.0182826554995,-6.5804113205e-05,-0.00454897294661,-0.0113884791287,1.41750827161e-10,0.352863167385,-0.0694316439746,9.64506492206
7833408,-0.00339032112892,-0.0180793990112,-6.13053410639e-05,-0.00485783407527,-0.0115156781533,8.50504962966e-11,0.348666235392,-0.0653615828203,9.63763348326
7833486,-0.00400852752984,-0.0179104820415,-7.18067557243e-05,-0.00504315075247,-0.0115919975681,5.10302977779e-11,0.345429815698,-0.0772847560887,9.63820244347
7833567,-0.00446641423843,-0.0181195722954,-8.09436122122e-05,-0.00558003082026,-0.0112120991555,3.06181786668e-11,0.349473468032,-0.0861146012118,9.63830439943
7833648,-0.0047597137458,-0.0180947371786,-8.61408487674e-05,-0.00547646879946,-0.0105584700464,1.83709072001e-11,0.348547777108,-0.0916519284517,9.62591572438
7833728,-0.00477479401376,-0.0179076757458,-8.55201519064e-05,-0.00498864152553,-0.010166292581,1.102254432e-11,0.34464048023,-0.0918618626374,9.61752483868
7833806,-0.00499352138984,-0.0177632458707,-8.87162523729e-05,-0.00512163522263,-0.0103566761632,6.61352659202e-12,0.341817261771,-0.0960579659711,9.61632102992
7833899,-0.00540215760497,-0.0177467508579,-9.58872458326e-05,-0.00520143144089,-0.0104709063126,3.96811595521e-12,0.342038692023,-0.10408229179,9.63140047562
7833966,-0.00490326509732,-0.0173203611618,-8.49400856412e-05,-0.00482361911038,-0.0113908245251,2.38086957313e-12,0.33403126453,-0.0945316773199,9.63781452121
7834048,-0.00459746453824,-0.0178928516352,-8.22757923436e-05,-0.00459693171208,-0.0119427754526,1.42852174388e-12,0.344789118826,-0.088561888472,9.62969194026
7834126,-0.00434869264935,-0.0176412780313,-7.67291625098e-05,-0.00446091927309,-0.0122739460091,8.57113046326e-13,0.3399910836,-0.0837829143332,9.63128273618
7834208,-0.00389968000485,-0.0179301090682,-6.993346215e-05,-0.0043793118097,-0.0116212682201,5.14267827796e-13,0.345731388441,-0.0751694458656,9.63606793639
7834286,-0.00385455320721,-0.0181554870583,-6.99933477082e-05,-0.00433034733167,-0.0116553516081,3.08560696677e-13,0.35013325201,-0.0743109277732,9.63750253551
7834368,-0.00396492815484,-0.0186916217792,-7.41244702157e-05,-0.00430096864485,-0.0121014917024,1.85136418006e-13,0.360435815464,-0.076429438744,9.6362085135
7834447,-0.00358224775271,-0.0188553069825,-6.75568248155e-05,-0.00428334143276,-0.012369175759,1.11081850804e-13,0.363744311544,-0.0690814193499,9.64022050361
7834527,-0.00400118613474,-0.018806086891,-7.52605667189e-05,-0.0042727651055,-0.0125297861929,6.66491104823e-14,0.362616947034,-0.0771224563463,9.63544509269
7834606,-0.00389532982702,-0.0189396550977,-7.3789999361e-05,-0.00469210937061,-0.0117747723304,3.99894662894e-14,0.36481357032,-0.0750038937296,9.62539724116
7834689,-0.00394398365277,-0.0189467557261,-7.47396926753e-05,-0.00536940599114,-0.0108960739514,2.39936797736e-14,0.364695023295,-0.0758875376538,9.61865026975
7834767,-0.00414317499086,-0.0185462292488,-7.68541517915e-05,-0.00535009390199,-0.010368854924,1.43962078642e-14,0.357201869934,-0.0797696063325,9.62465773387
7834847,-0.0042955788427,-0.0184243712201,-7.91575063285e-05,-0.00533850664851,-0.0109039036305,8.63772471851e-15,0.355339599744,-0.0828171080378,9.63783901898
7834926,-0.00440265288286,-0.0179066795663,-7.88503016335e-05,-0.00490586423495,-0.0116506229158,5.1826348311e-15,0.345363691487,-0.084885029227,9.63832576491
7835007,-0.00428457416274,-0.0176495514917,-7.56332879092e-05,-0.00464627878682,-0.0112472743641,3.10958089866e-15,0.340096407031,-0.0825344794502,9.62975926632
7835086,-0.00423856639008,-0.0179301777269,-7.60111512439e-05,-0.0049162175794,-0.0110052652331,1.8657485392e-15,0.345315742168,-0.0816029899162,9.624379947
7835167,-0.00426283565878,-0.017846653244,-7.60901599566e-05,-0.00507818085495,-0.0112857498159,1.11944912352e-15,0.343419519764,-0.0820017768599,9.61636395208
7835246,-0.00418356609933,-0.0180413702274,-7.54902125114e-05,-0.00474966875882,-0.0118797306271,6.71669474111e-16,0.347549029973,-0.080565107864,9.62687724576
7835329,-0.00410807031411,-0.0182184282083,-7.48556397915e-05,-0.00455256150114,-0.0122361191138,4.03001684467e-16,0.351463257095,-0.0792242661344,9.64060724712
7835406,-0.00435867730758,-0.0179586914993,-7.82895109233e-05,-0.00443429714653,-0.0115985720829,2.4180101068e-16,0.34591092789,-0.083926424915,9.62562149182
7835486,-0.00405751560313,-0.0182825265074,-7.41946484722e-05,-0.00436333853377,-0.0112160438644,1.45080606408e-16,0.352156337007,-0.0781285942068,9.62572800496
7835568,-0.00407231102978,-0.0184735521717,-7.52435148517e-05,-0.00432076336611,-0.0109865269332,8.70483638448e-17,0.356143002644,-0.0784806184382,9.63393219848
7835654,-0.00438253629479,-0.0186518355269,-8.1757354276e-05,-0.00429521826551,-0.0104231267131,5.22290183069e-17,0.35949268269,-0.0844379169613,9.63143268945
7835726,-0.00442251409924,-0.0182742536067,-8.08324331702e-05,-0.00427989120516,-0.00965939651956,3.13374109841e-17,0.351925684077,-0.085139254083,9.62370805972
7835806,-0.00456054615892,-0.0181051641175,-8.25838323871e-05,-0.00427069496894,-0.00920115840343,1.88024465905e-17,0.348343165573,-0.0877148378502,9.61476371889
7835888,-0.00452992678859,-0.0180723881403,-8.18808083806e-05,-0.00426517722721,-0.00935190559522,1.12814679543e-17,0.347630175467,-0.0871054066164,9.61250957655
7835968,-0.00426721971823,-0.0177842043836,-7.59018029859e-05,-0.00426186658218,-0.00986804397175,6.76888077257e-18,0.342653398249,-0.0821907647218,9.62863476326
7836058,-0.00419855895545,-0.0181894183575,-7.63826557443e-05,-0.00255711994931,-0.0106034170591,4.06132846354e-18,0.350680659555,-0.0809179207471,9.63447915263
7836126,-0.00429047989028,-0.0184047732521,-7.89794145371e-05,-0.00323703221543,-0.0110446409116,2.43679707813e-18,0.355257596172,-0.0827878361885,9.64588665174
7836208,-0.00394623872819,-0.0188410572346,-7.43650895197e-05,-0.00407066963657,-0.0108836851616,1.46207824688e-18,0.363031581629,-0.0760089199748,9.62854971443
7836288,-0.00377837127048,-0.0190377476211,-7.19452314422e-05,-0.00457085208925,-0.0107871117116,8.77246948125e-19,0.368653653567,-0.0731386710767,9.67656607256
7836368,-0.00398918875855,-0.0183679173567,-7.32860365369e-05,-0.0044452714994,-0.0107291676416,5.26348168875e-19,0.354309804445,-0.0769231855562,9.63953534178
7836446,-0.00389314799504,-0.0183805540506,-7.15708507523e-05,-0.00436992314549,-0.0106944011996,3.15808901325e-19,0.35480146128,-0.0751237514216,9.6462867434
7836527,-0.00388748459015,-0.0179479026816,-6.97839632254e-05,-0.00432471413314,-0.0106735413344,1.89485340795e-19,0.345280228575,-0.0747623514389,9.61394571913
7836608,-0.00379478407921,-0.0183400081836,-6.96085801307e-05,-0.00429758872573,-0.0106610254152,1.13691204477e-19,0.35345385858,-0.0731089904532,9.63093296981
7836686,-0.00401202091815,-0.0180456477438,-7.24118905586e-05,-0.00428131348129,-0.0106535158638,6.82147226862e-20,0.349260070275,-0.0776236376801,9.67201052163
7836767,-0.00388911426423,-0.0183305488341,-7.13021185293e-05,-0.00427154833462,-0.0106490101329,4.09288336117e-20,0.353926402273,-0.0750651823639,9.64877301952
7836847,-0.00409170803995,-0.0186165315815,-7.6187253501e-05,-0.00256292900077,-0.0106463066943,2.4557300167e-20,0.358641562799,-0.0787973528266,9.62692965278
7836935,-0.00390026874865,-0.0185917395022,-7.2525867954e-05,-0.00153775740046,-0.0106446846312,1.47343801002e-20,0.357879356625,-0.0750511509537,9.61933029655
7837006,-0.00416430315716,-0.0183973276405,-7.66256828416e-05,-0.00262541468613,-0.0102180213319,8.84062806013e-21,0.354548990928,-0.0802254549765,9.63057241377
7837086,-0.00455918100725,-0.0181227148784,-8.26391685966e-05,-0.00370369911899,-0.0103877134138,5.30437683608e-21,0.349438309352,-0.0878790205445,9.63564174294
7837167,-0.00438885842449,-0.0183168285004,-8.04042310346e-05,-0.00392497971724,-0.0109152187243,3.18262610165e-21,0.353075665054,-0.0845702944068,9.63269783629
7837249,-0.00449365136494,-0.0180687207613,-8.1208609558e-05,-0.00235498783034,-0.0108060318492,1.90957566099e-21,0.348554313828,-0.0866552015464,9.64002945861
7837326,-0.003754355276,-0.0187114469265,-7.02622160503e-05,-0.00141299269821,-0.0103148296627,1.14574539659e-21,0.360685553384,-0.0723438350392,9.63269684387
7837407,-0.00427347762785,-0.0181515267108,-7.75836342034e-05,-0.00255055586477,-0.0104457984122,6.87447237956e-22,0.350247204833,-0.0824317880841,9.64266248498
7837486,-0.00432382235637,-0.0181502369465,-7.84920642992e-05,-0.00365878382617,-0.0109500697234,4.12468342774e-22,0.350448540185,-0.0834567364247,9.64888128982
7837568,-0.00425788499529,-0.0179766733015,-7.65556727116e-05,-0.00389803054155,-0.0108269424487,2.47481005664e-22,0.346978038906,-0.0821563441009,9.6456693879
7837646,-0.00405688431638,-0.0176489866924,-7.16116408003e-05,-0.00233881832493,-0.0107530660838,1.48488603398e-22,0.34058617515,-0.0782636465484,9.64398166692
7837726,-0.00393818054144,-0.0177710350138,-6.99971411145e-05,-0.00140329099496,-0.0111344303264,8.90931620391e-23,0.342736561047,-0.0759280280169,9.63818063101
7837807,-0.0038291471675,-0.0178545363757,-6.83790488893e-05,-0.00254473484282,-0.0113632488719,5.34558972235e-23,0.344266212751,-0.0738083964,9.6358971103
7837901,-0.00424520726558,-0.0179664330979,-7.62842330399e-05,-0.00322960115154,-0.0115005399992,3.20735383341e-23,0.34662052477,-0.0818740039045,9.64123076252
7837966,-0.00458203353757,-0.0182340211409,-8.35636668044e-05,-0.00364052093677,-0.0115829146756,1.92441230004e-23,0.351863834637,-0.0883893095692,9.64323385302
7838046,-0.00496530705217,-0.0183230032606,-9.09957359886e-05,-0.00388707280791,-0.0116323394815,1.15464738003e-23,0.35309445923,-0.0956503752923,9.62983107719
7838129,-0.00428996396979,-0.0179883217704,-7.71824511933e-05,-0.00446069399206,-0.011661994365,6.92788428016e-24,0.346171388673,-0.082529342607,9.61700100838
7838207,-0.00427462866749,-0.0181395591244,-7.75533486131e-05,-0.00437917664108,-0.0112540972336,4.1567305681e-24,0.349439571485,-0.0823181683084,9.6267806392
7838286,-0.0043083758211,-0.0184494383158,-7.95013837518e-05,-0.0043302662305,-0.0110093589548,2.49403834086e-24,0.356188884492,-0.0831491443932,9.64773188816
7838368,-0.00418374574647,-0.0183794155875,-7.69084662726e-05,-0.00472661004561,-0.0108625159875,1.49642300451e-24,0.354971228645,-0.0807746880519,9.65144409139
7838449,-0.00394395514178,-0.0183895072743,-7.25402228766e-05,-0.00496441633468,-0.0107744102071,8.97853802709e-25,0.354480055302,-0.075998131923,9.63284185889
7838527,-0.00370189804178,-0.0180687340828,-6.68999915627e-05,-0.00468141004665,-0.0107215467389,5.38712281625e-25,0.347721006814,-0.0712168369175,9.61713153623
7838606,-0.00428266059957,-0.0183490302107,-7.85966222093e-05,-0.00280884602799,-0.010689828658,3.23227368975e-25,0.353481804528,-0.0824738497091,9.62685895592
7838690,-0.00425879274859,-0.0182853992743,-7.78874546776e-05,-0.0016853076168,-0.0106707978094,1.93936421385e-25,0.352389300002,-0.0820454524036,9.63054062624
7838767,-0.0040418959119,-0.0179697849977,-7.26443240538e-05,-0.00271394481593,-0.0110850693617,1.16361852831e-25,0.3467059738,-0.077957691364,9.64184759474
7838846,-0.00387767290042,-0.0177940058718,-6.90107796333e-05,-0.00375681719687,-0.0113336322931,6.98171116986e-26,0.343295978079,-0.0747867742422,9.64144917086
7838927,-0.00421986690505,-0.0180375729157,-7.61292206376e-05,-0.00395685056397,-0.0110570799905,4.18902670192e-26,0.347474904963,-0.0812639297797,9.62684490657
7839007,-0.00430888637944,-0.0179030897711,-7.71554622153e-05,-0.00407687058423,-0.0104654585475,2.51341602115e-26,0.344954437606,-0.0829954416081,9.62885625546
7839086,-0.00437489183379,-0.0182329256184,-7.97811035715e-05,-0.00457457265785,-0.0101104856816,1.50804961269e-26,0.351343022671,-0.0842737688711,9.62958422447
7839166,-0.00445465401154,-0.0184054288644,-8.20045226838e-05,-0.00487319390202,-0.0103231920236,9.04829767614e-27,0.354457913212,-0.085759025727,9.62379608156
7839246,-0.00447210883635,-0.0185481017353,-8.29642321392e-05,-0.00505236664852,-0.0104508158288,5.42897860569e-27,0.357523948367,-0.0861713395084,9.63229420411
7839331,-0.00461596108523,-0.0185586233523,-8.56815530769e-05,-0.00473418023496,-0.0109530801733,3.25738716341e-27,0.358166468629,-0.0890523496035,9.64409684229
7839406,-0.00432273749869,-0.0185123404138,-8.00384523189e-05,-0.00454326838682,-0.0112544387801,1.95443229805e-27,0.357115459791,-0.0833589305141,9.6399256774
7839486,-0.00447564993416,-0.0186711203176,-8.35808058371e-05,-0.0048544113394,-0.0114352539441,1.17265937883e-27,0.359597316646,-0.0861678033768,9.62425486933
7839567,-0.00475436649404,-0.0184930827162,-8.79389258218e-05,-0.00504109711095,-0.0111180529811,7.03595627297e-28,0.355819187107,-0.0914444295847,9.61485238449
7839647,-0.00471602714277,-0.0181742701412,-8.57254639753e-05,-0.00515310857388,-0.0109277324033,4.22157376378e-28,0.349961006893,-0.0907796826531,9.62261842288
7839726,-0.00413979238578,-0.0183584402976,-7.60135936458e-05,-0.00479462539018,-0.0108135400566,2.53294425827e-28,0.353149863413,-0.0796069270235,9.61291283595
7839806,-0.00412974618705,-0.0183689971432,-7.58727448126e-05,-0.00500522554142,-0.0103193345871,1.51976655496e-28,0.353147815997,-0.0793676181282,9.60732890397
7839888,-0.00394238104018,-0.0182564606501,-7.19864815178e-05,-0.00513158563216,-0.0104485013669,9.11859932977e-29,0.351470646385,-0.0758721504668,9.62073795639
7839970,-0.00403028680334,-0.018182021042,-7.32914705702e-05,-0.00520740168661,-0.0105260014348,5.47115959786e-29,0.350224924452,-0.0776055925261,9.62591034586
7840046,-0.00430647766002,-0.018347420234,-7.90267909638e-05,-0.00482720125781,-0.0105725014755,3.28269575872e-29,0.353547634115,-0.0829552207501,9.62949261987
7840127,-0.00392616363909,-0.0181774053291,-7.13798118464e-05,-0.00459908100054,-0.0110260915614,1.96961745523e-29,0.35027401626,-0.0756305103797,9.62972662295
7840208,-0.00404456105595,-0.0180813942116,-7.31438591101e-05,-0.00275944860032,-0.0108725555514,1.18177047314e-29,0.348549265713,-0.077939448806,9.63321890712
7840288,-0.00410160807422,-0.0180295169519,-7.39626570106e-05,-0.00165566916019,-0.0107804339455,7.09062283883e-30,0.347753835551,-0.0790853916957,9.63890558011
7840366,-0.00391382543863,-0.0182532168524,-7.14523562211e-05,-0.00354754186489,-0.0107251609819,4.2543737033e-30,0.352064980774,-0.0754633944412,9.63872628142
7840446,-0.00369095169397,-0.0184944791765,-6.82743720194e-05,-0.00425697542624,-0.0111176872652,2.55262422198e-30,0.356567029236,-0.0711354145944,9.63454855938
7840526,-0.00419197731078,-0.0185200758123,-7.76497380186e-05,-0.00468263556306,-0.0109275129738,1.53157453319e-30,0.356874056653,-0.0807490551531,9.62940830433
7840612,-0.00427509906279,-0.0188104757996,-8.04316138369e-05,-0.00451234158368,-0.0103877183374,9.18944719912e-31,0.361846676423,-0.0822076765001,9.61267720183
7840686,-0.00369673104824,-0.0185608052607,-6.86265963203e-05,-0.00441016519606,-0.0100638415556,5.51366831947e-31,0.357168802973,-0.0711118410075,9.6162854898
7840767,-0.00458662699575,-0.0187278090153,-8.59134461368e-05,-0.00477454942494,-0.010295205548,3.30820099168e-31,0.361065843551,-0.0883963563135,9.63425219354
7840846,-0.00471886826295,-0.0186918935713,-8.82209790816e-05,-0.00456748990081,-0.0104340239434,1.98492059501e-31,0.361009866238,-0.0911056201846,9.6512571401
7840928,-0.00452097302941,-0.0181700611246,-8.21607602103e-05,-0.0048689442478,-0.0105173149807,1.19095235701e-31,0.350681212712,-0.0872245146889,9.64470069641
7841007,-0.00429322742184,-0.0182159933457,-7.82191018717e-05,-0.00504981685599,-0.0109929796645,7.14571414204e-32,0.351187785244,-0.0827410698973,9.63430248572
7841089,-0.00462396494274,-0.0183860666797,-8.50318108707e-05,-0.00473265035944,-0.0112783784748,4.28742848522e-32,0.354604190922,-0.089148969331,9.63787978611
7841167,-0.00447622020026,-0.0186434439476,-8.34675040359e-05,-0.00454235046151,-0.0110239276995,2.57245709113e-32,0.359527076321,-0.0862899443427,9.63667428402
7841249,-0.00420264050338,-0.0184690398895,-7.76326626241e-05,-0.00442817052276,-0.0112969472958,1.54347425468e-32,0.356016463078,-0.0809832268595,9.63283852061
7841327,-0.00408058848865,-0.0183553962288,-7.4914063686e-05,-0.0043596625595,-0.0114607590535,9.26084552808e-33,0.354388935464,-0.0787568770337,9.64825415484
7841409,-0.00365456918907,-0.018604872209,-6.80050178024e-05,-0.00474424784301,-0.0115590461082,0.00170276024585,0.358919082714,-0.0704778823237,9.6405047036
7841487,-0.00356187653754,-0.0185654453247,-6.61396432334e-05,-0.00497499901312,-0.011618018341,0.00272441639336,0.357806448408,-0.068622947656,9.63106662953
7841569,-0.00384714603511,-0.018544327535,-7.13555348314e-05,-0.00511344971518,-0.0116534016807,0.00163464983601,0.357857128322,-0.0742137515037,9.64336029754
7841646,-0.00420774932722,-0.0183126348061,-7.70685830449e-05,-0.00519652013642,-0.0116746316845,0.000980789901609,0.353338553116,-0.0811595363026,9.64211737237
7841728,-0.00428304331267,-0.0181047354592,-7.75567897381e-05,-0.0048206723277,-0.0112616796253,0.000588473940965,0.349669727329,-0.0826933853558,9.65166668441
7841806,-0.00427328266492,-0.0179853019297,-7.68694146795e-05,-0.00502085370393,-0.0105882183283,0.000353084364579,0.346989591524,-0.0824165939576,9.64135512051
7841888,-0.00443365310384,-0.0176096938693,-7.80881503005e-05,-0.00514096252967,-0.0101841415502,0.000211850618747,0.339156585725,-0.0853629812769,9.62487311503
7841967,-0.00473389553899,-0.0181494655499,-8.59327917796e-05,-0.00521302782511,-0.0107930756062,0.000127110371248,0.349779672871,-0.0912009564908,9.6307856427
7842051,-0.004455963958,-0.0178098676,-7.93735058007e-05,-0.00483057694091,-0.0111584360398,7.62662227491e-05,0.343224836193,-0.0858451954765,9.63074185681
7842126,-0.00420221980048,-0.0174944152614,-7.35272802474e-05,-0.00289834616455,-0.0109519622385,0.0017485199795,0.337137152692,-0.0809557977058,9.63071558528
7842208,-0.00389518307335,-0.0174596672014,-6.80194847179e-05,-0.00173900769873,-0.0108280779577,0.0010491119877,0.335878744252,-0.0749096968852,9.61394041074
7842286,-0.00359479133892,-0.0174343049008,-6.26826205241e-05,-0.00104340461924,-0.0111794374507,0.000629467192619,0.335363119354,-0.0691272548987,9.61321269249
7842368,-0.00325224526871,-0.0178272822697,-5.79882166437e-05,-0.000626042771543,-0.0126673233309,0.000377680315571,0.342954609894,-0.0625453275486,9.61397316237
7842463,-0.00327589922277,-0.0184319493458,-6.03917922773e-05,-0.000375625662926,-0.013560054859,0.000226608189343,0.355410369696,-0.0631451542928,9.63597725924
7842527,-0.00348076419,-0.0186200769099,-6.48237282243e-05,-0.0019281356436,-0.0136700037144,0.00269010528238,0.359053102921,-0.0670963528296,9.63625102839
7842606,-0.00414171722543,-0.0188998702495,-7.82925745443e-05,-0.00371102175493,-0.0128845929047,0.00501958366112,0.364111784848,-0.0797621390903,9.62707790341
7842689,-0.00499874924893,-0.0188055203217,-9.40218826764e-05,-0.00478075342173,-0.0119876563575,0.00556589056545,0.362119170518,-0.0962201569894,9.62229228892
7842774,-0.00548098422232,-0.0187108394601,-0.000102573314201,-0.00542259242181,-0.0114494944291,0.00333953433927,0.360684181754,-0.105616127397,9.63258902936
7842846,-0.00589809964577,-0.0185057149978,-0.000109169145646,-0.00580769582186,-0.0111265972721,0.00200372060356,0.356710726338,-0.113647911301,9.63206330897
7842927,-0.00618536241383,-0.0183072385284,-0.00011325805385,-0.00561306780043,-0.0100814788549,0.00120223236214,0.352890132092,-0.119185242142,9.63222671707
7843008,-0.00587673296413,-0.0177525237008,-0.000104345087509,-0.00549629098757,-0.0090287177432,0.000721339417282,0.341260389069,-0.112930834006,9.60622796384
7843086,-0.00525430143725,-0.0176305090223,-9.26516892561e-05,-0.00500053483839,-0.00882275113762,0.000432803650369,0.340746887739,-0.101516743812,9.65838461888
7843166,-0.00467205871751,-0.0168747402216,-7.88518657293e-05,-0.00470308114888,-0.00955055129719,0.00238813249753,0.325594736647,-0.090119306541,9.64275225936
7843247,-0.0047359573983,-0.0170556411129,-8.07874472973e-05,-0.00282184868933,-0.00998723139293,0.00356132980583,0.328474454293,-0.091181709657,9.62475371768
7843332,-0.00429573899304,-0.017441150537,-7.49347203665e-05,-0.0016931092136,-0.0106749295118,0.0021367978835,0.334990688201,-0.082481765052,9.59863170204
7843407,-0.00390479853832,-0.0175018136688,-6.83520471491e-05,-0.00101586552816,-0.0106618583217,0.0012820787301,0.336745647051,-0.0751070167949,9.61551963524
7843486,-0.00340325334371,-0.0176658286944,-6.01310225825e-05,-0.00231227956274,-0.0106540156077,0.000769247238059,0.34091108452,-0.0656543443543,9.64408774794
7843567,-0.00361843891898,-0.0182929170348,-6.62033143241e-05,-0.00351581804496,-0.0106493099792,0.000461548342835,0.352987153642,-0.0697989676965,9.64303268294
7843648,-0.00358180590959,-0.0186613356115,-6.6853352943e-05,-0.00423794113428,-0.0110721766636,0.000276929005701,0.359275114451,-0.0689338593777,9.620851829
7843726,-0.00363923644613,-0.0188681209954,-6.86782346492e-05,-0.00467121498788,-0.0113258966742,0.000166157403421,0.363526731268,-0.0700907355485,9.62789403075
7843807,-0.00398569812888,-0.0186013408322,-7.41527485469e-05,-0.0053568693615,-0.0106267485577,9.96944420525e-05,0.358416256046,-0.0767703654014,9.62876746948
7843888,-0.00434983912021,-0.0181832564086,-7.91080677031e-05,-0.00576826198567,-0.0106329497492,5.98166652315e-05,0.350800987758,-0.0838906054713,9.64102312085
7843967,-0.00493272020503,-0.018087849562,-8.92379864005e-05,-0.00516371743725,-0.0106366704642,3.58899991389e-05,0.348865448612,-0.0951059343277,9.6383208647
7844046,-0.00477119966341,-0.0177743411405,-8.4819295778e-05,-0.00522668076966,-0.0102132128317,2.15339994833e-05,0.342915721804,-0.0920189048349,9.64124849416
7844126,-0.0047527916685,-0.0177996330171,-8.46123084119e-05,-0.00526445876911,-0.0103848283136,1.292039969e-05,0.343176608375,-0.0916032081353,9.63486478619
7844207,-0.00484207308782,-0.0182031314578,-8.81565336304e-05,-0.00528712556877,-0.0109134876643,7.752239814e-06,0.350755165465,-0.0932691514437,9.62911920008
7844299,-0.00468957269515,-0.0179832288012,-8.43482267731e-05,-0.00530072564857,-0.0112306832746,4.6513438884e-06,0.346922593908,-0.0904379947725,9.64051589871
7844366,-0.00416041549247,-0.0179514846476,-7.46983185878e-05,-0.00488319563499,-0.0114210006409,2.79080633304e-06,0.345820151804,-0.0801201747932,9.62700320378
7844446,-0.004306865079,-0.017898387632,-7.70990064782e-05,-0.00463267762684,-0.0115351910606,1.67448379982e-06,0.345158686541,-0.0830274491142,9.63709151944
7844527,-0.00377673484413,-0.0181649687308,-6.86160813767e-05,-0.00448236682195,-0.011178015251,1.00469027989e-06,0.350268471202,-0.072800805406,9.63620132401
7844608,-0.00409635522733,-0.0180830609113,-7.40873771644e-05,-0.00439218033902,-0.0109637097652,6.02814167937e-07,0.348306518512,-0.0788752476479,9.62561155979
7844687,-0.00419363420696,-0.0182115919256,-7.63860951204e-05,-0.00476375851072,-0.0104094364123,3.61688500762e-07,0.351199489721,-0.0808439718309,9.63697479354
7844767,-0.00390470493807,-0.0182156833339,-7.11392146267e-05,-0.00498670541374,-0.0100768724005,2.17013100457e-07,0.35149875145,-0.0753214416923,9.64307447329
7844846,-0.00349824556242,-0.0179580796237,-6.28322892944e-05,-0.00554616361702,-0.00987733399348,1.30207860274e-07,0.346411064835,-0.0674589404548,9.64003051649
7844926,-0.00402015206879,-0.0176120610793,-7.08147199658e-05,-0.00545614847752,-0.00975761094924,7.81247161646e-08,0.340006570541,-0.0775854900053,9.64778094906
7845006,-0.00438507582305,-0.0176876539309,-7.75745854834e-05,-0.00540213939382,-0.0096857771227,4.68748296987e-08,0.341431117618,-0.0846191003997,9.64668512461
7845086,-0.0046881575553,-0.0173384918436,-8.12986964265e-05,-0.00494404388214,-0.00964267682678,2.81248978192e-08,0.334863820717,-0.0905152077984,9.65177371393
7845167,-0.00460122690825,-0.0174295942111,-8.02105518935e-05,-0.00466918657513,-0.0100425067107,1.68749386915e-08,0.336430106395,-0.0887856285853,9.64620774154
7845247,-0.00484949838138,-0.0179154275986,-8.68958057001e-05,-0.00450427219093,-0.0107080947025,1.01249632149e-08,0.345510163446,-0.0934939650418,9.63760091445
7845327,-0.00481076957617,-0.0180030528559,-8.66235807555e-05,-0.0044053235604,-0.0111074474976,6.07497792896e-09,0.347127475021,-0.0927276644255,9.63554928036
7845407,-0.0044911575399,-0.0183235794377,-8.2308731361e-05,-0.00434595438209,-0.0113470591746,3.64498675737e-09,0.353125685452,-0.0865218000713,9.63048757725
7845487,-0.00427758100855,-0.0182316882683,-7.80012021316e-05,-0.00260757262925,-0.0106394460579,2.18699205442e-09,0.350978527726,-0.0823194411268,9.6202679504
7845569,-0.00383435532126,-0.0184699151501,-7.08328213152e-05,-0.0032673038234,-0.0106405682494,1.31219523265e-09,0.355675737241,-0.0738125216097,9.6232341406
7845646,-0.0039149949671,-0.0181326532861,-7.1001464108e-05,-0.00408883260135,-0.0106412415642,7.87317139593e-10,0.349396096642,-0.0754121345478,9.62932341771
7845727,-0.00427074104529,-0.0180162262216,-7.69558293032e-05,-0.00415605980666,-0.0106416455532,4.72390283756e-10,0.34754367361,-0.0823574064611,9.64015958896
7845816,-0.00495389137722,-0.0178794602925,-8.85881525685e-05,-0.00419639612984,-0.0106418879465,2.83434170253e-10,0.345235118961,-0.0956225359177,9.64929491353
7845888,-0.00470299384198,-0.017907132359,-8.42315713463e-05,-0.00422059792375,-0.011067723444,1.70060502152e-10,0.345286507168,-0.0906529246268,9.63586191516
7845967,-0.00453372289745,-0.0178010161915,-8.07184945712e-05,-0.00466080906156,-0.0113232247425,1.02036301291e-10,0.343401978763,-0.0874317376862,9.64049138494
7846050,-0.00491465152076,-0.0178801721825,-8.78899277142e-05,-0.00492493574425,-0.0110508354601,6.12217807747e-11,0.345144303713,-0.0948364119965,9.64638152896
7846127,-0.00450421732685,-0.0180515900182,-8.13223608054e-05,-0.0046577216924,-0.0108874018907,3.67330684648e-11,0.348105060011,-0.0868293679499,9.63674750624
7846210,-0.0046114073682,-0.0180048596935,-8.30420872107e-05,-0.00449739326129,-0.010789341749,2.20398410789e-11,0.34748731213,-0.0889683263363,9.64461404208
7846287,-0.00457708571544,-0.0181034633202,-8.28755536424e-05,-0.00440119620262,-0.010730505664,1.32239046473e-11,0.349510865061,-0.0883363400401,9.64789744258
7846367,-0.00435965880653,-0.0185659252649,-8.09558230115e-05,-0.00476916802888,-0.010695204013,7.93434278841e-12,0.358386442132,-0.0841264256061,9.64627618039
7846446,-0.00405973271026,-0.0182801642535,-7.42255955622e-05,-0.00456426106318,-0.0106740230224,4.76060567304e-12,0.352459040572,-0.0782485946215,9.63524777611
7846529,-0.00413435657559,-0.0186891477713,-7.72817596435e-05,-0.00486700694522,-0.0106613144281,2.85636340383e-12,0.360634187771,-0.079749719517,9.64275652333
7846607,-0.00454312912529,-0.0187535225293,-8.52155405397e-05,-0.00504865447444,-0.0106536892715,1.7138180423e-12,0.361708553434,-0.0875935792688,9.63816380536
7846693,-0.00458292599725,-0.018528530869,-8.49303580014e-05,-0.00515764299197,-0.011074804239,1.02829082538e-12,0.357804189678,-0.0884691724636,9.6500128047
7846767,-0.00420051500098,-0.0182448118712,-7.66510411227e-05,-0.00522303610249,-0.0113274732195,6.16974495227e-13,0.352349109266,-0.081093662902,9.65089727999
7846847,-0.00435972103802,-0.0181043267835,-7.89435035601e-05,-0.00483658190734,-0.0110533845463,3.70184697136e-13,0.349315481184,-0.0840903823115,9.64209057869
7846927,-0.00406533012055,-0.0181959321942,-7.39853318893e-05,-0.00460470939026,-0.0108889313424,2.22110818282e-13,0.351326026992,-0.0784663888107,9.64877756621
7847007,-0.00425013271569,-0.0182703223219,-7.76649599821e-05,-0.00489127594146,-0.0107902594201,1.33266490969e-13,0.352771774642,-0.0820351775247,9.64895903606
7847086,-0.00438710649108,-0.0185062502635,-8.12035790569e-05,-0.00463752581073,-0.0107310562667,7.99598945814e-14,0.357230525723,-0.0846552910851,9.64619487598
7847168,-0.00400142225096,-0.0178584415742,-7.14711357711e-05,-0.00448527573228,-0.0111212244361,4.79759367488e-14,0.34434346558,-0.0771293929128,9.63591725396
7847248,-0.00414378516872,-0.0176732420303,-7.32461872375e-05,-0.00439392568522,-0.0113553253377,2.87855620493e-14,0.340441952151,-0.0797964589899,9.62663821859
7847327,-0.00427718140965,-0.0175043976411,-7.48816423423e-05,-0.00433911565698,-0.0106444057558,1.72713372296e-14,0.337143363429,-0.0823543793002,9.62538036035
7847407,-0.0042253662492,-0.0177343336526,-7.49465107361e-05,-0.0047319197015,-0.00979216394517,1.03628023377e-14,0.341149714347,-0.0812555096602,9.61337289761
7847486,-0.00408076447267,-0.0178668257544,-7.2922555472e-05,-0.00496760212821,-0.0092808188588,6.21768140265e-15,0.343553524897,-0.078441406382,9.60928088212
7847567,-0.00429315956977,-0.0183793288891,-7.89194499795e-05,-0.00510901158424,-0.00939970186844,3.73060884159e-15,0.354333197702,-0.0827384485656,9.63411957175
7847646,-0.00416861606687,-0.0183857062962,-7.66565744189e-05,-0.00519385725785,-0.00947103167422,2.23836530495e-15,0.355294337566,-0.0805282705553,9.65692365101
7847726,-0.00422389802808,-0.0182669058417,-7.71711126258e-05,-0.00524476466202,-0.00993951961915,1.34301918297e-15,0.352997979493,-0.0815963654094,9.6569591491
7847807,-0.00401288304839,-0.0182247952899,-7.31467099228e-05,-0.00527530910452,-0.0106463024476,8.05811509783e-16,0.351859584815,-0.0774488190015,9.64812190181
7847887,-0.00411263638378,-0.0184739099253,-7.59900853389e-05,-0.00486794570856,-0.0110703721446,4.8348690587e-16,0.356204371494,-0.079269854145,9.6353975283
7847966,-0.00396985762133,-0.0188289710473,-7.47621775447e-05,-0.00462352767099,-0.0113248139629,2.90092143522e-16,0.36312080649,-0.0765317525749,9.63710029066
7848046,-0.00409003714886,-0.0188934817986,-7.72894852413e-05,-0.0049025669099,-0.0110517889923,1.74055286113e-16,0.364876465828,-0.0789590344551,9.65057179671
7848127,-0.00383229590076,-0.0186464245519,-7.14715675075e-05,-0.00506999045325,-0.01088797401,1.04433171668e-16,0.35994435728,-0.0739510591008,9.64644427187
7848224,-0.00382938609785,-0.0188099216663,-7.20437271816e-05,-0.0047447545178,-0.0107896850206,6.26599030007e-17,0.362731176136,-0.0738193158804,9.63654573183
7848286,-0.00389058800518,-0.0183533393031,-7.14178519258e-05,-0.00454961295653,-0.010730711627,0.00170276024585,0.353629359978,-0.0749373707782,9.62869124647
7848366,-0.00364298519638,-0.0177765572735,-6.47703997159e-05,-0.00485821808123,-0.0102696375294,0.00102165614751,0.342182766133,-0.0701015398986,9.61966899227
7848446,-0.00379960676243,-0.0179000097588,-6.80243881313e-05,-0.00504338115605,-0.00999299307077,0.000612993688505,0.344891616467,-0.0731855455212,9.62886026987
7848536,-0.00441430519,-0.017821350091,-7.86821409089e-05,-0.00515447900094,-0.0102526964571,0.000367796213103,0.343643884675,-0.0850915958674,9.63629039776
7848607,-0.00410128611963,-0.0182395442099,-7.48186654674e-05,-0.00479544764641,-0.0104085184889,0.000220677727862,0.351753791743,-0.0790671169443,9.63739659217
7848687,-0.00428255916367,-0.0183797603991,-7.87264322577e-05,-0.00458002883369,-0.0100763216465,0.000132406636717,0.353746693991,-0.0823956144048,9.61794901487
7848769,-0.00412789462246,-0.0183675644408,-7.5832809729e-05,-0.00487646760753,-0.00987700354105,7.94439820303e-05,0.353266494178,-0.0793648893949,9.61130829198
7848858,-0.00405202337349,-0.0184612313223,-7.48187061908e-05,-0.00462864081036,-0.00975741267779,4.76663892182e-05,0.355611996116,-0.0780252947209,9.62599863119
7848926,-0.00465228181983,-0.0186897731523,-8.69662237973e-05,-0.00447994473207,-0.0105370382828,2.85998335309e-05,0.360371179603,-0.0896713865493,9.63529167505
7849008,-0.00458163836771,-0.0185463581715,-8.49882165012e-05,-0.00439072708509,-0.0105791235843,1.71599001185e-05,0.357480605711,-0.0882793358359,9.63200895523
7849087,-0.00454480912512,-0.0179483966506,-8.15860222026e-05,-0.0043371964969,-0.0101786847037,1.02959400711e-05,0.345451194237,-0.0874441054078,9.6183077352
7849166,-0.00435161665931,-0.0180858729515,-7.87164067868e-05,-0.00473076820545,-0.0103641114369,6.17756404268e-06,0.348528614492,-0.0838305049927,9.63019829712
7849246,-0.00430094699444,-0.0176590760397,-7.59632981732e-05,-0.00496691123058,-0.0104753674767,3.70653842561e-06,0.340319419671,-0.0828594455737,9.6308682898
7849326,-0.00439487487474,-0.0179619165405,-7.89538760624e-05,-0.00510859704566,-0.0105421211007,2.22392305536e-06,0.34616781025,-0.0846710115825,9.63103086524
7849407,-0.00448739603709,-0.018101866162,-8.1244372953e-05,-0.00519360853471,-0.0110078633365,1.33435383322e-06,0.348958584099,-0.0864762116858,9.63352261216
7849487,-0.00432285743299,-0.0180642250271,-7.81025436484e-05,-0.00524461542813,-0.0117129987394,8.00612299931e-07,0.347999426583,-0.0832497687596,9.62711679483
7849567,-0.00438985464807,-0.0180213088759,-7.91245388916e-05,-0.00527521956419,-0.0112846998583,4.80367379958e-07,0.346705671575,-0.084426365162,9.61417533813
7849647,-0.00472493580815,-0.0175565805237,-8.29674302001e-05,-0.00486789198436,-0.0110277205296,2.88220427975e-07,0.337789132925,-0.0908784069878,9.61502959009
7849727,-0.00430163988988,-0.0180655458222,-7.77248763452e-05,-0.00462349543647,-0.0108735329324,1.72932256785e-07,0.347762100361,-0.0827786237825,9.61985170425
7849813,-0.00432332058122,-0.0182664806373,-7.89857686898e-05,-0.00447685750773,-0.0112067104355,1.03759354071e-07,0.351591099328,-0.0831859975117,9.61867482992
7849887,-0.00429585474813,-0.0176282600361,-7.57409131508e-05,-0.00524025487341,-0.0109809268759,6.22556124426e-08,0.339523288747,-0.0827121612512,9.62515131031
7849967,-0.00393280755799,-0.0176620967062,-6.94730018233e-05,-0.00527260323136,-0.0104197666787,3.73533674656e-08,0.340183467877,-0.0757240948464,9.62544589605
7850046,-0.00379268424102,-0.0179578789698,-6.81200394897e-05,-0.00529201224612,-0.0100830705604,2.24120204793e-08,0.345607398841,-0.0729677759996,9.61772178201
7850126,-0.00398729742455,-0.0182005266523,-7.25835132942e-05,-0.00487796759352,-0.0103067429509,1.34472122876e-08,0.350777118748,-0.0768206485099,9.63128324621
7850206,-0.00416474381682,-0.0183159591716,-7.62947382522e-05,-0.00462954080196,-0.0108666364466,8.06832737256e-09,0.35340011036,-0.0803294728462,9.64205374655
7850290,-0.00417541699574,-0.0183638989261,-7.66905369126e-05,-0.00448048472702,-0.011202572544,4.84099642354e-09,0.354255644829,-0.0805194061198,9.64013634095
7850367,-0.0037385840495,-0.0179145935067,-6.69864318292e-05,-0.00481674114353,-0.0114041342025,2.90459785412e-09,0.34519215887,-0.0720142401074,9.62940909095
7850446,-0.00378568359687,-0.018122992373,-6.86196766514e-05,-0.00501849499343,-0.0115250711976,1.74275871247e-09,0.349091453769,-0.0728966446504,9.6260852031
7850526,-0.00416689670546,-0.0185243795613,-7.72030941118e-05,-0.00513954730337,-0.0115976333946,1.04565522748e-09,0.357416534859,-0.0803692721906,9.64180796268
7850607,-0.00433477128703,-0.0184127589517,-7.98293826232e-05,-0.00478648862787,-0.0116411707129,6.2739313649e-10,0.355468398699,-0.0836557478847,9.64741089577
7850687,-0.00415481187897,-0.0184160351502,-7.65288009679e-05,-0.00457465342257,-0.0116672931038,3.76435881894e-10,0.355257197667,-0.0801209694828,9.63999874816
7850767,-0.00428131336935,-0.0183995702977,-7.87883865614e-05,-0.00444755229939,-0.0112572764769,2.25861529137e-10,0.354891056881,-0.0825490855959,9.63866392175
7850846,-0.00413117047084,-0.0181057067154,-7.4810662728e-05,-0.00437129162548,-0.0105855764393,1.35516917482e-10,0.349404128758,-0.0796963922755,9.64384853005
7850926,-0.00420500237118,-0.0185108858629,-7.78523469061e-05,-0.00432553522114,-0.0101825564167,8.13101504892e-11,0.35712529952,-0.0810972384415,9.64097379088
7851006,-0.00435103867037,-0.0185906168722,-8.0903240864e-05,-0.00429808137853,-0.0103664344647,4.87860902935e-11,0.358406119654,-0.0838531074692,9.63398170373
7851086,-0.00420783100074,-0.0187553945065,-7.89341139486e-05,-0.00428160907297,-0.0104767612934,2.92716541761e-11,0.362047653726,-0.0811970658975,9.64630644289
7851167,-0.00407804447003,-0.018991370444,-7.7462268186e-05,-0.00469741575109,-0.0105429573907,1.75629925057e-11,0.366387355663,-0.0786457602905,9.64053317726
7851247,-0.00391272398029,-0.0185851485325,-7.27316754974e-05,-0.00537258981943,-0.010582675049,1.05377955034e-11,0.358456689521,-0.0754390357641,9.63826631871
7851326,-0.00407131524618,-0.0188857195394,-7.69040715316e-05,-0.00535200419897,-0.010606505644,6.32267730204e-12,0.364472197306,-0.0785428245346,9.64384938839
7851407,-0.00406601079839,-0.0192588778651,-7.83219794839e-05,-0.00533965282669,-0.0101951139396,3.79360638122e-12,0.371912224634,-0.0784897364688,9.64983285203
7851486,-0.00413069295578,-0.0190513710703,-7.87103215876e-05,-0.00533224200332,-0.0103739689784,2.27616382873e-12,0.367517694888,-0.0796549844594,9.63977598075
7851567,-0.00388027194263,-0.0189341850455,-7.34835137152e-05,-0.0053277955093,-0.0104812820016,1.36569829724e-12,0.365359817372,-0.0748474694354,9.64260040412
7851646,-0.00350909943393,-0.018417777693,-6.46411760125e-05,-0.00532512761289,-0.0101199797541,8.19418978344e-13,0.35520654472,-0.0676533974327,9.63783071367
7851728,-0.00379368489348,-0.0184957428225,-7.01795303864e-05,-0.00489783681358,-0.0103288884671,4.91651387006e-13,0.356776026441,-0.0731531810378,9.63951788254
7851807,-0.00390163530143,-0.0185640986374,-7.2443378267e-05,-0.00293870208815,-0.0108799237563,2.94990832204e-13,0.358196555806,-0.0752559503707,9.64220612503
7851903,-0.00455485053713,-0.0185144420509,-8.43458491889e-05,-0.0038916715602,-0.0107848548684,1.76994499322e-13,0.356894091931,-0.0877703597732,9.63280574289
7851966,-0.00466880436347,-0.0183405085178,-8.56435854506e-05,-0.00488914330489,-0.0103021234742,1.06196699593e-13,0.353718411946,-0.0900117617624,9.63770000091
7852046,-0.00465332764542,-0.0184221759731,-8.57398997956e-05,-0.00548762635171,-0.0100124846377,6.3718019756e-14,0.355164886279,-0.0896806617937,9.63417221124
7852127,-0.00424118665336,-0.0182129874794,-7.72581894438e-05,-0.00542102611833,-0.0102643913972,3.82308118536e-14,0.351483787724,-0.0818205565001,9.64402654574
7852212,-0.00444515214768,-0.018539383349,-8.24253608469e-05,-0.00495537591685,-0.010415535453,2.29384871122e-14,0.357654834402,-0.0857236193004,9.6403623398
7852286,-0.00438746229489,-0.0185227381092,-8.12825426804e-05,-0.00467598579596,-0.0105062218864,1.37630922673e-14,0.357766159919,-0.0847135746564,9.65205018586
7852367,-0.00438555562947,-0.0181119488391,-7.94447552606e-05,-0.00450835172342,-0.0105606337465,8.25785536038e-15,0.349453249418,-0.0845863882021,9.64182464155
7852448,-0.0041390605667,-0.0181639772619,-7.51948519982e-05,-0.0044077712799,-0.0105932808625,4.95471321623e-15,0.349972166936,-0.0797216730091,9.62850670998
7852526,-0.00418403558344,-0.0183311793823,-7.67118685379e-05,-0.00434742301379,-0.0106128691321,2.97282792974e-15,0.353395979605,-0.0806335665496,9.63392348033
7852606,-0.00453175438356,-0.0182242485368,-8.26023850398e-05,-0.00431121405412,-0.0101989320324,1.78369675784e-15,0.35161954455,-0.0874056269903,9.6417225257
7852689,-0.00481344136428,-0.0185524850423,-8.93177068277e-05,-0.00471517873978,-0.00995056977262,1.07021805471e-15,0.35821512883,-0.0929053842508,9.64855673441
7852769,-0.00481945308951,-0.018629848022,-8.9802307332e-05,-0.00453186748972,-0.00980155241673,6.42130832823e-16,0.359060017239,-0.0928533562829,9.6311094447
7852846,-0.00416094979294,-0.0189620944055,-7.89151950007e-05,-0.00484757080114,-0.00971214200319,3.85278499694e-16,0.365313034269,-0.0801328707033,9.62710541536
7852926,-0.00415646440202,-0.0190547050065,-7.92152698116e-05,-0.00461130272653,-0.0100841858165,2.31167099816e-16,0.367628323491,-0.0801620246681,9.64098356904
7853010,-0.00417661568913,-0.019113518038,-7.98451022116e-05,-0.00446954188177,-0.010733102166,1.3870025989e-16,0.36925691719,-0.080658357379,9.6538594444
7853086,-0.00421962954823,-0.0190776245549,-8.05158789224e-05,-0.00268172512906,-0.0111224519757,8.32201559339e-17,0.368318712082,-0.0814349973375,9.64745917982
7853166,-0.00398180534346,-0.0188433962822,-7.50446556033e-05,-0.00160903507744,-0.0109303718,4.99320935603e-17,0.36392506636,-0.0768731578264,9.65104104622
7853246,-0.0040474302989,-0.0182891501604,-7.40370507071e-05,-0.00266818129231,-0.00996374357172,2.99592561362e-17,0.352430332785,-0.0779667767759,9.6297269898
