timestamp,orien_x,orien_y,orien_z,orien_w,ang_v_x,ang_v_y,ang_v_z,lin_acc_x,lin_acc_y,lin_acc_z
8615281,-0.008636779697,0.0602982164384,0.000521751353302,0.998142905052,0.000718212916189,-0.00968041606735,-0.0011782427938,-1.15425599082,-0.164725602897,9.51716363079
8615361,-0.00860986749134,0.0601744088519,0.000519053618886,0.998150610522,0.00341075817995,-0.00580824964041,-0.00240970592213,-1.15176147291,-0.16419706706,9.51636055762
8615441,-0.00937569527485,0.0613021136072,0.000575858432644,0.99807505509,0.00460059527674,-7.94292925482e-05,-0.00144582355328,-1.17300967793,-0.178723995851,9.51132973057
8615520,-0.00928425861591,0.0635419469947,0.000591160137727,0.997935806575,0.00446311741189,0.00548631322348,-0.000867494131967,-1.2156861217,-0.176905665821,9.50591703268
8615601,-0.0090035616175,0.0649760958454,0.00058627911036,0.997846029768,0.00267787044714,0.00925144879455,-0.00052049647918,-1.24296792912,-0.171505104815,9.50219057361
8615681,-0.00909184890524,0.0659369303317,0.000600821114978,0.997782189917,-9.60379775668e-05,0.013213290383,-0.000312297887508,-1.26053411441,-0.173053171532,9.49420861419
8615761,-0.00896483736816,0.066249873032,0.000595251144628,0.997762612895,-0.0038888333397,0.0168674655205,-0.000187378732505,-1.26652484242,-0.170630129237,9.49372900152
8615840,-0.00940984912995,0.0665733657899,0.000627866212577,0.997736963077,-0.0070158906799,0.0216141109718,-0.000112427239503,-1.27371058172,-0.179231950833,9.50038441873
8615921,-0.00980170904323,0.0670845934213,0.000659060211482,0.997698927265,-0.00846643502256,0.0253134783655,-6.74563437017e-05,-1.28257100846,-0.186547825285,9.49240666076
8616001,-0.0103866622322,0.0679135269493,0.000707065737455,0.997636892944,-0.00891107156669,0.0283844789246,0.00336504668548,-1.29674581064,-0.197401694439,9.4782826195
8616082,-0.0105761218213,0.0691807508831,0.000733462639456,0.997547809073,-0.00790078330879,0.0302270792601,0.00542454850298,-1.31985532208,-0.200801553773,9.46789283342
8616163,-0.0105714421388,0.0698474051671,0.0007402373617,0.997501396817,-0.00686892029258,0.0309069493999,0.00623455953202,-1.33252392811,-0.200686687879,9.46620794493
8616241,-0.0110692236926,0.0710349919917,0.000788342374114,0.997412091723,-0.00667549254432,0.0300378012994,0.00544349596506,-1.35425088152,-0.209955154817,9.45705672618
8616322,-0.0117784712153,0.0719190528904,0.000849355302308,0.997340561715,-0.00698512595683,0.0290906223777,0.00326609757904,-1.3713571964,-0.223417100459,9.45659381843
8616401,-0.0132881821324,0.072825389144,0.0009703800419,0.997255707065,-0.00674521594287,0.0280966249632,0.00195965854742,-1.38904301046,-0.252084402121,9.45655549394
8616482,-0.0141514274667,0.0734972122295,0.00104301668351,0.997194469004,-0.00404712956572,0.027074536453,0.00117579512845,-1.40133044007,-0.268327102454,9.45102583542
8616563,-0.0146407055596,0.0743507622682,0.00109168722846,0.997124075584,-0.00242827773943,0.0268869734083,0.000705477077072,-1.4201950658,-0.278072722654,9.4661433931
8616650,-0.0151862066958,0.0747399139946,0.00113833200434,0.997086770839,-0.00145696664366,0.0293285759503,0.000423286246243,-1.42672543792,-0.288229657762,9.45893335642
8616732,-0.0161065098344,0.0749653841911,0.0012109966992,0.997055316921,-0.000874179986196,0.0320706076599,0.000253971747746,-1.43279844268,-0.306055406962,9.4694513847
8616812,-0.0164902890626,0.0748914812651,0.00123863048207,0.997054563299,-0.000524507991717,0.0332901366242,0.000152383048648,-1.43380862371,-0.31387781449,9.48533900831
8616890,-0.0161230659674,0.0753632548789,0.00121871234373,0.997025045472,-0.00031470479503,0.0331704738798,0.00307126025942,-1.44494921964,-0.307318511204,9.49846288497
8616966,-0.0159914313468,0.0761079351295,0.00122077303628,0.996970594374,-0.00189158312287,0.0318216060488,0.00482258658589,-1.45714024101,-0.304340609896,9.48335287502
8617042,-0.0156083608772,0.0769659318145,0.00120503461433,0.996910814618,-0.00368909024249,0.0271810747971,0.00629907244323,-1.4654125345,-0.295371264131,9.42927587785
8617121,-0.0152080718128,0.0771764003208,0.00117735313452,0.996900763178,-0.00604466469865,0.0222683057387,0.00718496395763,-1.45864432246,-0.285680093684,9.35995897397
8617201,-0.014914974896,0.07796394777,0.00116651192594,0.996843922398,-0.0112892199255,0.0150637436891,0.00431097837458,-1.46703324387,-0.278907710751,9.31717173082
8617281,-0.0146978022719,0.0784272088636,0.00115639556257,0.996810819698,-0.0140102630002,0.00903824621345,0.00258658702475,-1.47326369754,-0.27436544066,9.30059735124
8617361,-0.0150650389156,0.0792297004841,0.00119750018657,0.996741824725,-0.0130887484762,0.00329449742076,0.00155195221485,-1.49232486037,-0.281935145743,9.32345328623
8617441,-0.0150046586259,0.0803730333094,0.00121002207549,0.996651178489,-0.00615048883986,-0.000151751854855,0.000931171328909,-1.52147865035,-0.282167405805,9.36781262848
8617522,-0.0147566558849,0.081240800728,0.0012029511833,0.99658453044,0.00141798743363,-9.10511129132e-05,0.000558702797346,-1.54615352932,-0.278954879518,9.41621546893
8617605,-0.014697513077,0.0819997355105,0.00120939697042,0.996523237985,0.0123444241197,-0.00303446109798,0.00331505210864,-1.56431033903,-0.278463884742,9.43687746739
8617692,-0.0150539460695,0.0825803278717,0.00124756379575,0.996469925156,0.0184745960698,-0.00863171764218,0.00369179151103,-1.57233138286,-0.284633632359,9.41695294406
8617770,-0.0153782837158,0.0825239194928,0.00127357245126,0.99646961274,0.0191728688097,-0.0145442119375,0.00221507490662,-1.57235560584,-0.290969102755,9.42343358284
8617848,-0.0151427280881,0.0819848410428,0.00124581238198,0.996517752765,0.0136321715931,-0.024902749498,-0.0012250954248,-1.56518753465,-0.287108939681,9.4436025374
8617931,-0.0144468217412,0.0814696412597,0.00118102781989,0.996570415007,0.00817930295586,-0.0323949422188,-0.00243781750073,-1.55442234745,-0.273779514199,9.43966275901
8618012,-0.0146560542498,0.0813657511492,0.00119659821995,0.996575828909,0.00490758177352,-0.0360388777283,-0.00146269050044,-1.55514584011,-0.278231707543,9.4562130851
8618091,-0.0149116375371,0.0806639696679,0.00120690024984,0.996629073655,0.00294454906411,-0.0377995489725,-0.000877614300262,-1.53882052409,-0.282578964711,9.43980706248
8618171,-0.0146060616417,0.0806934692425,0.00118259767364,0.996631239952,0.00176672943847,-0.0401330219035,0.00245326185008,-1.53548967895,-0.276089352704,9.41607707929
8618251,-0.0139958188135,0.0806022985612,0.00113188990355,0.99664743282,0.00446555815478,-0.0462156963381,0.00828299809344,-1.53636421387,-0.265012980519,9.43272429078
8618335,-0.0132765315143,0.0808027238399,0.00107639540718,0.996641106369,0.00821330569187,-0.0549735817364,0.0105037696551,-1.53305821216,-0.250226871563,9.3890825005
8618411,-0.0132768441496,0.079708686015,0.0010617525684,0.996729212708,0.0108876442756,-0.0627824533442,0.0105591624077,-1.51192099785,-0.250213752332,9.38923364458
8618490,-0.0125099430901,0.0790145990125,0.000991646892949,0.996794467833,0.0129179374873,-0.0717246769235,0.0105923980592,-1.50211171126,-0.236319511165,9.41230866698
8618571,-0.0119917057241,0.0777578031953,0.000935348537713,0.996899718206,0.0141361134143,-0.077941391194,0.0106123394502,-1.48114266885,-0.227025285801,9.43405454589
8618655,-0.0125317991547,0.0770542881194,0.00096858530674,0.996947667902,0.0127385686632,-0.0808200396333,0.00892154403886,-1.46760356273,-0.237250481539,9.43441280444
8618732,-0.0122142433324,0.0766665297729,0.000939258773532,0.996981531055,0.012325731874,-0.0804187783897,0.00535292642332,-1.45971951923,-0.231175170515,9.43223355791
8618811,-0.0114379891304,0.0763698826704,0.000876134407644,0.997013563506,0.0129294099234,-0.0789009514591,0.00321175585399,-1.45259489147,-0.216277236098,9.42374340501
8618891,-0.0105324526712,0.0755408425937,0.000797954981799,0.997086762428,0.0111631664457,-0.0767131851163,-0.00190415704076,-1.43347606452,-0.198719349471,9.40404468314
8618976,-0.0104986564703,0.0740369308639,0.000779470875051,0.997199931561,0.00882635017475,-0.0771032855565,-0.006250774962,-1.4040482559,-0.198000844302,9.40132341633
8619051,-0.0102046576528,0.0725575427845,0.000742420700386,0.997311745022,0.00529581010485,-0.084148386804,-0.00885874571475,-1.37801186492,-0.19278133788,9.41836542919
8619131,-0.0095186967601,0.0712900508024,0.000680350499734,0.997409975984,0.00317748606291,-0.0896525177369,-0.00829507785908,-1.35736220684,-0.180312247552,9.44511062837
8619211,-0.0087870417652,0.0691771704062,0.000609346136008,0.99756550446,0.00190649163775,-0.0925293062352,-0.0066798069613,-1.31983329456,-0.166845289205,9.46905861335
8619291,-0.00877368355001,0.0672815154015,0.000591670359897,0.997695279175,0.00412372541288,-0.0942553793342,-0.00187943386947,-1.2839084179,-0.166665979675,9.47456885819
8619372,-0.00867619817888,0.0660849691256,0.000574644233035,0.997776112274,0.00673113586235,-0.0935882629477,0.0035549303544,-1.26139581124,-0.164882452796,9.4793115261
8619451,-0.00883529213892,0.0657089767615,0.000581838315612,0.997799543721,0.00616713182472,-0.0863769521324,0.00766692901165,-1.25219781023,-0.167643059324,9.46467945472
8619532,-0.00861489057433,0.0647073345163,0.000558638214345,0.997866941252,0.00157182878752,-0.0833272358276,0.00715429777576,-1.23183495933,-0.16331391909,9.45685789256
8619611,-0.00820721564016,0.0646909053222,0.00053206473244,0.997871457297,-0.00246242321918,-0.0836258563521,0.0059953389113,-1.23422187892,-0.15592803163,9.47778291303
8619692,-0.00810376338098,0.0645961697425,0.000524585011473,0.997878443842,-0.00616004460759,-0.0833793386053,0.00359720334678,-1.23373866934,-0.15413012098,9.48818314381
8619771,-0.00935737376766,0.0643627087612,0.00060354391678,0.997882516638,-0.0088043075021,-0.0819543577728,0.00215832200807,-1.22746323945,-0.17771165169,9.47407256817
8619851,-0.0101551463618,0.0639684806283,0.000650976309852,0.997900036436,-0.00698534474711,-0.0819507493963,0.00129499320484,-1.21507885553,-0.192099990281,9.4366363827
8619931,-0.0102866207425,0.0638377264305,0.000658051744764,0.99790705834,-0.00206275654095,-0.0776916837557,0.00247975616875,-1.21507025033,-0.194986909452,9.45607320047
8620012,-0.0105342872592,0.0632153444828,0.00066730050878,0.997944088476,0.000465106321275,-0.0725821040026,0.00148785370125,-1.20692480157,-0.200310363445,9.48617064391
8620091,-0.0109680319103,0.0622827080735,0.000684489045809,0.997998045101,0.000279063792765,-0.0707934263351,0.000892712220751,-1.192939566,-0.209250519825,9.51811547961
8620171,-0.0112888330965,0.0620064900126,0.000701375492405,0.998011656002,0.00187019852151,-0.0701459097961,0.000535627332451,-1.1926887103,-0.216290554815,9.55883019597
8620251,-0.0121621094059,0.0619385933263,0.000754809360549,0.998005573138,0.0011221191129,-0.0655004992581,-0.00180707390784,-1.19110167589,-0.232964424442,9.55620454702
8620336,-0.0127678318555,0.0623198653049,0.000797304710476,0.997974238727,0.000673271467743,-0.0610104926894,-0.00576683502079,-1.19302249723,-0.24344758655,9.51201236811
8620411,-0.0131903612718,0.0619134424016,0.000818302167998,0.997994023229,0.000403962880646,-0.0570394185638,-0.00814269168855,-1.18364050273,-0.251174004811,9.49962285055
8620492,-0.0133035879908,0.0616289615375,0.000821521036296,0.998010125575,-0.00146038251746,-0.0525283237812,-0.00786544544337,-1.17633536487,-0.252936813775,9.48500653504
8620571,-0.0127601255185,0.0610988020542,0.000781151745417,0.998049851153,-0.00428175000217,-0.050247356973,-0.00727340763479,-1.16333315618,-0.242023490853,9.46282921643
8620656,-0.0125266941249,0.0617444943927,0.000774994250274,0.998013075431,-0.00640026055446,-0.0471760166423,-0.00436404458088,-1.17588254507,-0.237630278594,9.46388803523
8620731,-0.0126621939116,0.061573662307,0.000781202937847,0.998021914928,-0.00639429670145,-0.0423533820136,-0.00261842674853,-1.17407479194,-0.240501015057,9.47577607431
8620811,-0.0130873196744,0.0616849720381,0.000808901037362,0.998009535008,-0.00596502832818,-0.038182731052,0.000557394258195,-1.17562376188,-0.248448381251,9.47069846929
8620891,-0.0148415980166,0.0609853375407,0.000906908376918,0.99802790196,-0.00357901699691,-0.0339775802292,0.00459133716954,-1.15811779106,-0.280750120059,9.43676670487
8620976,-0.0157999342605,0.0608362510985,0.000963113578655,0.998022236747,-1.89598908346e-05,-0.0323058698585,0.00871446316219,-1.15551507405,-0.298934062514,9.43819488132
8621052,-0.015401735653,0.0627628718893,0.000968682532286,0.997909149224,0.00509690480304,-0.0342826740663,0.0128910990036,-1.19633081323,-0.292366755868,9.46850046761
8621131,-0.0144277360593,0.0633142169324,0.00091541331423,0.99788892788,0.00944349380376,-0.0410027273899,0.0124172500783,-1.2098069291,-0.274540002251,9.4914722227
8621211,-0.0141573873744,0.0626508970954,0.000888808685895,0.997934688993,0.0124771372656,-0.0458861395071,0.0100044904157,-1.19682362401,-0.269350613899,9.49041122547
8621291,-0.0139512911775,0.0618017419923,0.000863950152984,0.997990560953,0.0142973233428,-0.0428565259169,0.00600269424944,-1.17873857382,-0.265039880058,9.47708535833
8621372,-0.0140636388973,0.0613133575041,0.0008640004111,0.998019107911,0.0145380548661,-0.0376332372711,0.00360161654966,-1.16860580421,-0.267002422908,9.47124461954
8621452,-0.0141606767334,0.0622309923643,0.000883033541161,0.997960920615,0.0104255931655,-0.0298166734075,-0.00252162074628,-1.18646815904,-0.268898209116,9.47252857958
8621531,-0.0135201588382,0.0627411371023,0.00085002298012,0.997937890092,0.00625535589932,-0.0251267350893,-0.00704694324678,-1.19574905094,-0.256628151544,9.46851055229
8621611,-0.0121751286223,0.0621336647202,0.000758006461743,0.997993286239,0.00205045329374,-0.0257182925902,-0.00891075662415,-1.1814457123,-0.230591344051,9.4486220638
8621691,-0.0107326323311,0.0618872703318,0.000665527591125,0.998025216839,-0.00302662863837,-0.0320328879511,-0.00534645397449,-1.17094834779,-0.202279990757,9.40317014746
8621771,-0.0102026223077,0.0628035509001,0.000642062015421,0.997973550876,-0.00607287779765,-0.037950095475,-0.00320787238469,-1.18954962635,-0.192475783761,9.41181202256
8621851,-0.0109278588554,0.0630658986189,0.000690591437309,0.997949296014,-0.0057721769859,-0.0436288702966,0.00701476785989,-1.20190749432,-0.207422814006,9.46919074381
8621931,-0.0104282973418,0.0632710024355,0.000661169726361,0.997941678516,-0.00644313662177,-0.0466104451282,0.0152768023139,-1.20884337476,-0.198434519703,9.49284406909
8622012,-0.00958005254054,0.0620171263208,0.000595300708192,0.998028929567,-0.00812278258768,-0.0471223198427,0.0227881633552,-1.17828897896,-0.181309954986,9.4426320396
8622091,-0.00913118310932,0.0635489276314,0.000581476608684,0.99793678015,-0.00742780992138,-0.0457266844256,0.0272949799799,-1.21023457634,-0.17318999765,9.46230421643
8622176,-0.00901921717799,0.0665006588799,0.000601139191799,0.997745435831,-0.0070108263216,-0.0444636131138,0.0274449295859,-1.26962452266,-0.171430485406,9.48057186702
8622252,-0.00971464373456,0.06747108191,0.000656985857653,0.997673717792,-0.00761201628466,-0.0449828405112,0.0198724782433,-1.287301978,-0.184500567855,9.47213942392
8622336,-0.0100586197498,0.0668842066302,0.00067430709061,0.997709813714,-0.00712135013957,-0.0465714471339,0.011923486946,-1.27516353543,-0.190906096328,9.4661222774
8622416,-0.0110421315276,0.064423214655,0.000712894262862,0.997861319286,-0.00214435977643,-0.0466732309847,0.00332288161442,-1.23220686516,-0.210311724203,9.50081921605
8622485,-0.0117444609124,0.0643434876845,0.000757301403932,0.997858411662,0.00509873505607,-0.042903090742,-0.0031145517689,-1.23564212324,-0.224588722754,9.53887563119
8622562,-0.0114631181693,0.0652327762652,0.000749416780479,0.997803948778,0.00944459195557,-0.039363936412,-0.00740270186034,-1.25182906789,-0.21902913209,9.5305848587
8622642,-0.0114767384763,0.0642836825242,0.000739345222829,0.997865394732,0.0116264160338,-0.0380918239369,-0.00912421179229,-1.23209255426,-0.219045260016,9.52058257171
8622721,-0.0109829659963,0.0631030748512,0.000694485162942,0.997946338283,0.0129355104808,-0.0394570067592,-0.00888004756707,-1.21258920077,-0.210196390629,9.54762118243
8622801,-0.011069678983,0.0625020341961,0.000693275649259,0.997983204918,0.0103154466572,-0.0432559468827,-0.00788216890901,-1.2035208105,-0.212309094143,9.56839333202
8622881,-0.0107095809187,0.0631969296991,0.000678207446304,0.997943381654,0.00618926799434,-0.0459610010184,-0.00856051189857,-1.21436034763,-0.204957590275,9.54733779853
8622962,-0.0105309414776,0.063174559682,0.000666656431921,0.997946706919,-0.0052259304941,-0.0480097235612,-0.00939320775376,-1.20506233895,-0.200067847622,9.47772247892
8623042,-0.0104489651994,0.06144587152,0.000643296654129,0.998055514573,-0.0150548800174,-0.0488132670254,-0.00776437495957,-1.17218963481,-0.198570523026,9.48168253887
8623124,-0.00980217322008,0.0609353852102,0.00059844018623,0.99809340149,-0.0209522497314,-0.0480183229196,-0.00465862497574,-1.1632399198,-0.186419380466,9.48932581849
8623209,-0.00802749796934,0.0627569636589,0.000504792787618,0.997996426834,-0.0249163616212,-0.0458385962102,-0.00279517498544,-1.19545905686,-0.152313636336,9.46661788733
8623291,-0.0069897627499,0.0629939609778,0.000441199947942,0.99798933333,-0.0255920685093,-0.0496390409222,-0.00167710499127,-1.19515808549,-0.132089610024,9.42857227171
8623372,-0.00706023828905,0.0618091826789,0.000437234517604,0.998062917254,-0.0242947323963,-0.055324828241,0.00154787737401,-1.17199316672,-0.133362723534,9.42513793578
8623452,-0.00721050439962,0.059913988816,0.000432798896323,0.998177406705,-0.0205365002982,-0.0600133708167,0.00390855685464,-1.1324762577,-0.135802532802,9.39865647729
8623531,-0.00825264156323,0.0597561111106,0.000494045536728,0.998178770066,-0.0187072511009,-0.0606980460548,0.00404789435863,-1.1262437844,-0.154983510648,9.37151485439
8623611,-0.00858034488267,0.0602316192981,0.000517767274418,0.998147414782,-0.017184011521,-0.0623859213821,0.00242873661518,-1.13926371205,-0.161703694035,9.40407159452
8623691,-0.00911239736818,0.060824053572,0.000555304273849,0.998106752987,-0.0120131671584,-0.0668041670701,0.00145724196911,-1.15210349212,-0.171960728384,9.41618361345
8623772,-0.0104577574467,0.0608367799184,0.000637432037633,0.998092738777,-0.00891066054091,-0.0698808045444,0.000874345181465,-1.15190649469,-0.197268562275,9.41195865684
8623852,-0.0117839879818,0.059889017625,0.000707049947372,0.99813523296,-0.00832622675478,-0.0708754069061,-0.0041579835672,-1.13622598544,-0.222748329748,9.43168975831
8623931,-0.012097896588,0.0595708712228,0.000722017607571,0.99815050513,-0.00712418636018,-0.0718978583845,-0.0071773808164,-1.13615506636,-0.229895904587,9.48183564576
8624011,-0.0132332343174,0.0608391067431,0.000806663458012,0.998059534243,-0.00427451181611,-0.0746397795789,-0.00643487879715,-1.163645834,-0.252140961942,9.50593767408
8624091,-0.0143413696704,0.0624389242926,0.000897303348819,0.997945339533,-0.00256470708966,-0.0784133826028,-0.0059893775856,-1.19091420206,-0.272431181169,9.47586674019
8624171,-0.0139970278237,0.0633376250191,0.000888409845163,0.99789360114,0.00144100617644,-0.0815289245401,-0.00529638679721,-1.2072752229,-0.26569111959,9.46835866716
8624251,-0.0141664659572,0.0612147020656,0.000868913221423,0.998023705371,0.010229785058,-0.0842496298254,-0.00317783207833,-1.16825012153,-0.269308527955,9.48372569712
8624335,-0.0133055663277,0.0599129036913,0.000798680941694,0.998114606638,0.0167801225714,-0.0854563629351,-0.001906699247,-1.13932839689,-0.252085939527,9.45272332721
8624411,-0.0140286561659,0.0596234537094,0.000838010710829,0.998122005725,0.0215617052023,-0.0827748823093,-0.0011440195482,-1.13035506792,-0.264976142574,9.42382683812
8624491,-0.0125866400547,0.0618261698315,0.000779737558988,0.998007261109,0.0252820349038,-0.0807403038723,-0.00238917197477,-1.17836176756,-0.238952020993,9.47113238949
8624572,-0.0132834130353,0.0623139788392,0.00082942784,0.997967850699,0.0258114724788,-0.0816480071174,-0.00611609386094,-1.18609681273,-0.251828547801,9.4573777711
8624656,-0.0145603392919,0.0599466704725,0.000874509802925,0.998094999713,0.0214465443478,-0.0877265998635,-0.0126091476073,-1.14189612597,-0.276313875507,9.46779977301
8624732,-0.0160270324541,0.0590507859002,0.000948185891629,0.998125863736,0.0166991371618,-0.093076515757,-0.0143765295478,-1.12662846171,-0.304652021593,9.48339036063
8624811,-0.0168266578724,0.0597629902185,0.0010075557157,0.99807025475,0.0138506928502,-0.097137845416,-0.0137341984662,-1.14164929993,-0.320218388249,9.4934629737
8624891,-0.0173924406413,0.0597737747324,0.00104163272675,0.998059874889,0.0142700765706,-0.106385684195,-0.0107946594485,-1.14108499622,-0.330755309072,9.48657785258
8624976,-0.0174735230319,0.0587375864656,0.00102828575739,0.99811999006,0.0157987769872,-0.114488527831,-0.00647679566909,-1.11871975872,-0.331570797748,9.46640562879
8625051,-0.0167796036982,0.0561839789808,0.000944370185408,0.998278975823,0.0179930674216,-0.11849885389,-0.00048055690976,-1.07058469214,-0.318652561657,9.47561068928
8625131,-0.0171249610381,0.0548734333727,0.000941262246708,0.998346010181,0.0184582615593,-0.120053669402,0.00269149628438,-1.05104103868,-0.326942771125,9.52662355712
8625212,-0.0177402316736,0.055556449147,0.000987265151186,0.998297445878,0.0195887581648,-0.123115009017,0.00544610832379,-1.06852410685,-0.34005718245,9.56441388281
8625292,-0.0168572868152,0.055647458231,0.000939655321253,0.99830772276,0.0215441263125,-0.123674742601,0.00752456560889,-1.06752177978,-0.322307871482,9.54040114585
8625371,-0.0161644909765,0.0548451388005,0.000887996845426,0.998363626863,0.0227173472011,-0.123159202629,0.00706887973411,-1.04944271142,-0.308306402577,9.51785321803
8625451,-0.0150179493193,0.0549192714562,0.000826115199078,0.99837750994,0.0221442095499,-0.122424188584,0.00424132784046,-1.04051063174,-0.283624949944,9.42483696622
8625531,-0.0145345094645,0.0553300206911,0.00080551413957,0.998362002478,0.0209489468363,-0.12283456028,0.00254479670428,-1.04400993007,-0.273365061519,9.38602604692
8625611,-0.0137283720959,0.0545911540888,0.000750638091183,0.998414129626,0.0168262687164,-0.125634923666,0.00152687802257,-1.03150487894,-0.258590002488,9.40080730173
8625691,-0.0128377661211,0.0527983485298,0.000678815840401,0.998522441091,0.0130755916601,-0.12774083176,-0.00163801355523,-0.99646852917,-0.241584681424,9.39315606317
8625771,-0.0116539501987,0.0509263395771,0.000594304704349,0.998634237438,0.0125279456721,-0.129855756739,-0.00353694850191,-0.963475711008,-0.219889320817,9.41945052145
8625852,-0.0108733717146,0.0512910544579,0.000558474940742,0.998624396671,0.0156048785711,-0.13538161234,-0.00212216910115,-0.971692179534,-0.205435583457,9.43211473425
8625931,-0.0104968580695,0.0513715698768,0.000539982934043,0.998624296819,0.0178767283719,-0.140825576009,-0.00127330146069,-0.976143220318,-0.198918122535,9.46054281638
8626011,-0.0105967091128,0.0498023187396,0.000528426191867,0.998702738341,0.0192398382524,-0.14707178464,-0.000763980876413,-0.948168063539,-0.201232570299,9.48119096815
8626091,-0.0100396293977,0.0480178862076,0.000482662955092,0.998795902816,0.0187806339963,-0.149542439635,-0.000458388525848,-0.922045582996,-0.192326171818,9.56540590902
8626171,-0.00881452812369,0.047452225097,0.000418757022077,0.998834528373,0.0180794213812,-0.150173452508,-0.000275033115509,-0.913315279485,-0.169265240444,9.58911981494
8626251,-0.00778059995439,0.0485120565964,0.000377909336475,0.998792220541,0.0176586938121,-0.150977750294,-0.000165019869305,-0.932497954312,-0.149203757304,9.57557541924
8626336,-0.00686378970891,0.0490823369498,0.000337305355718,0.998771094303,0.0174062572706,-0.151886019027,-9.90119215831e-05,-0.943768139042,-0.131660203601,9.57822268929
8626412,-0.00615082221343,0.0467977854022,0.000288166046526,0.998885404653,0.0134235847926,-0.152856670328,-0.00346492764465,-0.898097233523,-0.117782189055,9.5630516397
8626491,-0.0050889046902,0.0445363896755,0.00022686949707,0.998994775549,0.0055000105068,-0.155141821355,-0.00718723732433,-0.85273817776,-0.0972449518608,9.5443722033
8626571,-0.0051043831414,0.0434566119149,0.000222031848069,0.999042250786,-0.001382584372,-0.156512911971,-0.00899493307068,-0.830550567789,-0.097372458177,9.52837613814
8626656,-0.00579178062122,0.0432221279967,0.000250571460099,0.999048667555,-0.00934335185244,-0.154781425971,-0.0100795505185,-0.823462926123,-0.110138230766,9.49842778494
8626731,-0.00500513666408,0.0437089839473,0.000218981468241,0.999031743928,-0.0145455024022,-0.152039774126,-0.0103046309257,-0.831660189756,-0.0950527785472,9.48572601666
8626812,-0.00506257748279,0.0441597217925,0.000223783193527,0.999011631164,-0.0159640324862,-0.149117712835,-0.00831122886274,-0.841606371422,-0.0962965743549,9.50061045131
8626892,-0.0052474707095,0.043116245536,0.00022646496056,0.999056255741,-0.0151123902907,-0.14736447606,-0.00243259694887,-0.820519601662,-0.0996764736657,9.48799329715
8626975,-0.00557689379642,0.0416073004549,0.000232244230725,0.999118449868,-0.0146014049734,-0.146312533995,0.00194596232237,-0.792305229015,-0.10601397624,9.49574589528
8627051,-0.00539470999259,0.0409263707023,0.000220974264552,0.999147576915,-0.0125920535372,-0.146532748878,0.0037217177622,-0.779925588581,-0.102633872805,9.50374933649
8627131,-0.00594721380506,0.0410105707336,0.000244108325593,0.999140983119,-0.0101093724911,-0.148367638055,0.00393579090317,-0.784229392455,-0.113534499708,9.53632414047
8627211,-0.00621141561826,0.0394401505845,0.000245174669992,0.999202598439,-0.00606562349466,-0.152448401991,0.0023614745419,-0.754489952368,-0.118638354854,9.54174323306
8627291,-0.00626145525848,0.0373888316879,0.000234276906992,0.999281148905,-0.00704489458849,-0.154896860352,-0.00156294570509,-0.711986011215,-0.119067046116,9.50046253774
8627371,-0.00655124727416,0.0368044945078,0.000241284006245,0.999300981749,-0.00848383736772,-0.157217315492,-0.00519466803768,-0.698215234659,-0.124112664193,9.46515963324
8627451,-0.00804793494361,0.0376703170969,0.00030339344978,0.999257767498,-0.00849582291233,-0.163292179252,-0.00779939149869,-0.712697684497,-0.152039732305,9.43799238639
8627531,-0.00901495708455,0.038375191581,0.00034621983035,0.999222675559,-0.00722594405471,-0.168639857754,-0.0093622255753,-0.724739036723,-0.169993074002,9.42001609712
8627612,-0.0100819307498,0.0377403634821,0.000380786405938,0.999236645964,-0.00135573600259,-0.172699844978,-0.0098742359598,-0.71807747843,-0.191538986491,9.49063318
8627692,-0.0101700765845,0.0362329794193,0.000368753418411,0.999291551433,0.00557190932038,-0.175561527374,-0.00805299188319,-0.694448089841,-0.194650307178,9.56173384965
8627771,-0.011030945122,0.034814365578,0.000384291739185,0.99933284271,0.0101541865756,-0.177704226873,-0.00483179512991,-0.670214809715,-0.212079410381,9.60511251194
8627852,-0.0123243007787,0.0340062440284,0.000419377645071,0.999345541392,0.0124778628673,-0.178564156511,0.000506443413748,-0.657829623134,-0.238099183094,9.65172984359
8627931,-0.0126416287799,0.0343379917392,0.000434379079937,0.999330227132,0.0130206885194,-0.178228734171,0.00370938653995,-0.665960821976,-0.244852500579,9.67610894009
8628012,-0.0124209001608,0.0335486479858,0.000416971346847,0.999359812876,0.0129206938492,-0.176750410582,0.00392839216982,-0.645939844016,-0.238848844097,9.60693933988
8628092,-0.0121471543326,0.0314429025905,0.00038215898639,0.999431660732,0.0115836268627,-0.174160656183,0.000654275056041,-0.599690173499,-0.231415927552,9.51851122722
8628172,-0.0115695087726,0.0306439522053,0.00035472584089,0.999463340413,0.00950431648637,-0.172181113482,-0.00216157533515,-0.584629639988,-0.220491833143,9.52243635914
8628251,-0.0121963090775,0.0301959920689,0.000368475121793,0.999469517461,0.00570258989182,-0.169716317678,-0.00427677563132,-0.571762597225,-0.230696788118,9.45105002715
8628336,-0.0122094124595,0.0303900798388,0.000371244201668,0.999463473806,1.60334433972e-05,-0.167386060072,-0.00597158587049,-0.573379758042,-0.230115996455,9.4170767741
8628411,-0.0125241448008,0.0300226031186,0.000376206561019,0.999470683696,-0.00637573085589,-0.16641359557,-0.00783985213691,-0.565730928556,-0.235753025607,9.40531194825
8628491,-0.0120837034323,0.0284036504051,0.000343384932833,0.999523435864,-0.009785099374,-0.168809947299,-0.00853512183531,-0.53672077393,-0.228121915462,9.43320839698
8628566,-0.0118859157016,0.0270444968085,0.000321588978626,0.99956351313,-0.010127960239,-0.176633109258,-0.00682383334703,-0.514526277835,-0.225937451035,9.49878798008
8628643,-0.0119058528764,0.0270360326343,0.000322027590437,0.999563504688,-0.010333676758,-0.183455456741,-0.00409430000822,-0.518687252297,-0.228218074869,9.578597738
8628721,-0.0125599298756,0.0258348512542,0.000324617900797,0.999587266448,-0.0104571066694,-0.185846104985,-0.000753819759083,-0.496284139708,-0.241078617138,9.59152824851
8628801,-0.0122532001957,0.0250173623963,0.000306661773527,0.99961187299,-0.00627426400166,-0.182172213194,0.00550736900502,-0.479490389831,-0.234669152705,9.5705561349
8628881,-0.011417421158,0.0255961569894,0.000292356965663,0.999607119707,-0.003764558401,-0.176562357627,0.0109668425093,-0.488328333019,-0.217655364914,9.52660882498
8628962,-0.0101958389213,0.0260632407235,0.000265840743543,0.999608264112,-0.00396149528645,-0.171919374103,0.0138168365505,-0.495785880427,-0.193800142776,9.4990433382
8629041,-0.00993767975668,0.0230630688284,0.000229265704307,0.999684592666,-0.0113163884626,-0.172113414419,0.0125470025449,-0.438490006039,-0.188824395969,9.49639041576
8629121,-0.00948901775807,0.0213315718051,0.000202470856484,0.999727403642,-0.0187091547985,-0.173081218731,0.0109337220186,-0.407224943565,-0.181050544564,9.53645777119
8629202,-0.00957525543539,0.0189435818442,0.000181430513899,0.999774685753,-0.0256989549688,-0.174513281441,0.0103914437643,-0.363805628981,-0.183808258867,9.59497468835
8629285,-0.0091187408796,0.0182355992385,0.000166320278849,0.999792120304,-0.029892835071,-0.175372519067,0.0096403867503,-0.351879830025,-0.175886080809,9.64133758645
8629368,-0.00883052469624,0.0166660568185,0.000147196211716,0.999822105535,-0.030280712825,-0.171205470967,0.00876406248041,-0.321740014714,-0.170414513475,9.6466498297
8629452,-0.00986441455616,0.0152841404019,0.00015079405059,0.999834519127,-0.0266822289242,-0.165299721615,0.00994102816433,-0.295036999551,-0.190355329179,9.646006453
8629531,-0.0110974632626,0.0144434370709,0.000160312109646,0.999834090104,-0.0215433081535,-0.162607652127,0.0114985876976,-0.278057509789,-0.213572566404,9.61976304904
8629612,-0.0114373347389,0.0127228955032,0.000145537316091,0.99985363635,-0.0129259848921,-0.159289650188,0.0141358836634,-0.242491278335,-0.217926102098,9.52429009139
8629692,-0.0103377597903,0.0115961123982,0.000119892293558,0.99987931598,-0.00775559093528,-0.153893328533,0.0152925711814,-0.219236178134,-0.195399106083,9.44857096401
8629772,-0.0108726794178,0.0110068195009,0.000119687946124,0.999880303057,-0.0076331849914,-0.148527085233,0.013006753262,-0.206959059175,-0.20438840408,9.39691456327
8629852,-0.00957114369439,0.0100456461171,9.61575795951e-05,0.999903729844,-0.0101138817938,-0.148712859744,0.00780405195721,-0.189058300495,-0.180093882291,9.40638273088
8629931,-0.0108087328461,0.0105718423537,0.000114281283111,0.999885690658,-0.0128793700597,-0.150101394636,0.00468243117433,-0.200105080395,-0.204542656279,9.45970824449
8630012,-0.0112384189815,0.0101805042427,0.000114425929447,0.999885014479,-0.0166671133265,-0.149231755325,0.0028094587046,-0.194283299702,-0.214423517351,9.53743280436
8630092,-0.0119032769281,0.0100939964933,0.000120166272186,0.999878196979,-0.0172369990408,-0.147007211492,0.00168567522276,-0.194620953942,-0.229450000303,9.63554287597
8630172,-0.0131831614025,0.0108688966757,0.000143307339901,0.999854014746,-0.00821374911715,-0.144395415008,0.00484261568681,-0.212061798439,-0.257140663024,9.74947555713
8630251,-0.0138342851242,0.0118358022803,0.000163767010091,0.999834236021,0.00741676231211,-0.144105407302,0.0109936805799,-0.23018775045,-0.268966657336,9.71751811626
8630336,-0.0140494219421,0.0112934714305,0.000158692531294,0.99983750983,0.0184978294155,-0.141802952371,0.0151100095772,-0.217360725221,-0.270316169939,9.61670137513
8630412,-0.0137864656722,0.00930304873327,0.000128273905428,0.99986167553,0.0242950895546,-0.134036128491,0.0141742864838,-0.17686394734,-0.262027911192,9.49994759143
8630492,-0.0140956517356,0.00842009726389,0.000118702760794,0.99986519115,0.0260706853923,-0.12852465404,0.0106330221976,-0.159030225093,-0.266152922252,9.4377961867
8630572,-0.014163379927,0.00866199634682,0.000122700057277,0.999862167218,0.0203250019114,-0.124792079308,0.00212291270395,-0.163892302536,-0.26790966839,9.45461430137
8630656,-0.0148604273413,0.0091248060692,0.000135619140919,0.999847932048,0.00878948065516,-0.119572704038,-0.00681436354541,-0.172555632987,-0.280934724374,9.44890343922
8630732,-0.0141211746994,0.00924434412911,0.000130559596827,0.999857548594,0.000165407655554,-0.116866768938,-0.0130281094179,-0.175598849763,-0.268159623687,9.49168501397
8630811,-0.0140362777853,0.00819042640962,0.000114978284921,0.99986793458,9.92445933325e-05,-0.119074418431,-0.0137765265112,-0.157074065717,-0.269113689251,9.58319450448
8630892,-0.0140118738088,0.00743008618582,0.00010412252684,0.999874217274,0.0034650672477,-0.119973318065,-0.0108200562755,-0.143804413795,-0.271122649586,9.67161902202
8630976,-0.0134140123723,0.00746313857188,0.000100122430469,0.999882170963,0.0101671515164,-0.113275926801,-0.00180944308923,-0.144222328453,-0.259159916656,9.65715724573
8631052,-0.011976114835,0.00820502319424,9.8274656697e-05,0.999894614752,0.0158911623235,-0.107980421858,0.0074281353757,-0.15692292588,-0.22899794096,9.55821877737
8631131,-0.0106874211625,0.00994637410043,0.000106312420572,0.999893413004,0.0167714284389,-0.108208639384,0.0116936122703,-0.18896414127,-0.202999890064,9.4950249737
8631212,-0.0107836649,0.00995733963617,0.000107388182817,0.99989227041,0.00665733657166,-0.113028160576,0.0125501381612,-0.188556416891,-0.204160471148,9.46405187631
8631291,-0.0111595832334,0.00968022877517,0.000108039109406,0.999890866645,-0.00537077940917,-0.115919873291,0.0147668139416,-0.183762799109,-0.211800004613,9.48736654693
8631372,-0.00988630824204,0.0100310761692,9.91801487495e-05,0.999900809372,-0.020250070104,-0.118080590981,0.0216307902088,-0.192139376243,-0.189329245932,9.57342081927
8631452,-0.00913413112683,0.0103276499481,9.43430766697e-05,0.999904944679,-0.0304547147053,-0.120228401718,0.0291546964608,-0.200756625013,-0.177522731885,9.7157936256
8631532,-0.0089280850659,0.0106000589074,9.46473180365e-05,0.999903954933,-0.0357261213431,-0.120665708038,0.0349461103964,-0.20808175577,-0.175227226778,9.81151237653
8631612,-0.00953891917502,0.00860725765009,8.21107128477e-05,0.99991745529,-0.0337806845883,-0.117948261399,0.0418264792495,-0.169860044673,-0.188215133674,9.8639158036
8631692,-0.00886095597352,0.00723825492303,6.41420568497e-05,0.999934541363,-0.0279308318593,-0.11461503317,0.0455290104999,-0.142138614694,-0.173981222538,9.81587036473
8631772,-0.00847402635504,0.00504696345214,4.27701817583e-05,0.999951357421,-0.0167584991156,-0.110060955864,0.043067938574,-0.0979724376154,-0.164483195193,9.7039643038
8631852,-0.00771296825656,0.00362883797642,2.79901290079e-05,0.999963669776,-0.0126092398381,-0.109031269726,0.0381857749268,-0.0690785297079,-0.146813370485,9.51639232373
8631932,-0.00737466786143,0.00265551557535,1.95841469824e-05,0.999969280592,-0.0126738246404,-0.110116218289,0.034830786677,-0.0498268236353,-0.138366257154,9.38038595943
8632011,-0.00751480701228,0.0033080535618,2.48602221077e-05,0.999966291351,-0.0173951661979,-0.113747017857,0.0332434837886,-0.0617389762613,-0.14024117397,9.33014618259
8632091,-0.00739560911929,0.00403862387052,2.98691439953e-05,0.999964496165,-0.0227821115011,-0.118053947905,0.0322911020556,-0.0751111921532,-0.137535401404,9.29760811483
8632172,-0.00872867100711,0.003991858197,3.48452220183e-05,0.999953936017,-0.0281427289904,-0.126172076733,0.0355508835689,-0.0747548158779,-0.163445256955,9.36140349194
8632251,-0.00969186903948,0.00396559245679,3.84361102596e-05,0.999945168634,-0.024973748562,-0.131894334153,0.0409122729686,-0.0754986707767,-0.184497834105,9.51675717939
8632336,-0.0114520024169,0.00392539845131,4.49569670994e-05,0.999926717748,-0.017538389506,-0.134901998543,0.0449804867313,-0.07570556355,-0.22083197683,9.63965749245
8632412,-0.0117187115469,0.004624158092,5.4193475629e-05,0.999920639863,-0.00371199272019,-0.13457814687,0.0486984851734,-0.0892372285109,-0.22611247101,9.64540235314
8632491,-0.0114901020049,0.00448282563302,5.15120419699e-05,0.999923936696,0.00713798572005,-0.133958145805,0.0505035941771,-0.0861034796846,-0.220661641542,9.60024697585
8632572,-0.0111462092813,0.00354104488254,3.94719268837e-05,0.999931608392,0.0144993529071,-0.135714595473,0.050309589395,-0.0677032389338,-0.213081580872,9.55663375802
8632656,-0.0123800864205,0.00290834065985,3.60084205809e-05,0.999919133589,0.0155106527277,-0.137194155335,0.0493418064028,-0.0554659936533,-0.236066863562,9.53190234832
8632732,-0.0132896876478,0.00227403105597,3.02239097311e-05,0.999909101905,0.0131376021898,-0.137656201191,0.0479097564845,-0.0433352431646,-0.253209915501,9.52400668731
8632812,-0.0137882995128,0.00169853798469,2.34222108517e-05,0.999903493952,0.00788256131385,-0.137933428705,0.0474762165951,-0.0324654903812,-0.263495746664,9.55230927362
8632892,-0.0136982145218,0.00122538252612,1.67871403736e-05,0.999905424065,0.002601086481,-0.139376835397,0.0489188529072,-0.023549437051,-0.263202900879,9.6044855898
8632979,-0.0143791732827,0.00286405785075,4.11872112731e-05,0.999892511649,0.0015606518886,-0.144925470089,0.0531899551862,-0.0555493509513,-0.278828924365,9.69253395886
8633052,-0.0148407801479,0.00165701291878,2.45941067647e-05,0.999888496257,0.00349053150193,-0.14995741115,0.057029686738,-0.0321325097407,-0.287725698125,9.69053576228
8633131,-0.0147604518121,-0.000352796170298,-5.20799856207e-06,0.999890996344,0.00549983939286,-0.151699505602,0.0597592157305,0.00681729225128,-0.285162896902,9.65653628159
8633212,-0.0134900202545,-0.00183177386176,-2.47129567112e-05,0.99990732738,0.00670542412741,-0.149339241781,0.0618226231875,0.0349755767668,-0.257528418073,9.54252330826
8633292,-0.013087885072,-0.00201092401738,-2.63210500594e-05,0.999912327535,0.00402325447645,-0.148774463612,0.0630606676617,0.0379841778472,-0.247172655092,9.44035728085
8633372,-0.0135992712166,-0.00210613729841,-2.86446447847e-05,0.99990530711,-0.00269432805168,-0.152266807264,0.0642291844077,0.0395499183294,-0.255324407264,9.3848037484
8633452,-0.0128027391644,-0.00322120968379,-4.12439016911e-05,0.999912852191,-0.0105560881217,-0.1560649737,0.0653559845167,0.060361236398,-0.239864744456,9.36535799855
8633531,-0.0125750156016,-0.00419388166102,-5.27427615655e-05,0.999912134919,-0.0161245242867,-0.157918183501,0.0664577546436,0.0785941112236,-0.235616770258,9.36614039727
8633612,-0.0120466155774,-0.00449682291489,-5.41759760317e-05,0.999917323933,-0.0186142058627,-0.15860441932,0.0679701968426,0.0859425336287,-0.230194943746,9.55216046517
8633692,-0.0115718618518,-0.00331609895398,-3.83762195547e-05,0.999927544389,-0.0188309446239,-0.16157030118,0.0684519721006,0.0644942091421,-0.225026486512,9.72099392559
8633771,-0.0104378140345,-0.00297931497919,-3.10993679023e-05,0.999941085641,-0.0159811574504,-0.167606730911,0.0678896571325,0.0585683992645,-0.205166000549,9.82636414466
8633851,-0.00940158671494,-0.00500901917852,-4.70954004872e-05,0.999943257228,-0.0151226652693,-0.167823068257,0.063295367537,0.0978691230548,-0.183672902332,9.76676373094
8633931,-0.00872251388427,-0.00752324680073,-6.56259786362e-05,0.9999336549,-0.0163103302064,-0.165824420358,0.0596874136567,0.145870414263,-0.169101102239,9.69197799564
8634012,-0.00815985264428,-0.00964087034625,-7.86743573252e-05,0.999920228935,-0.0217055198448,-0.164199541557,0.058799711513,0.184966256126,-0.156527299527,9.58988513479
8634091,-0.00806424545232,-0.0102255366945,-8.24682314073e-05,0.999915196176,-0.0266453938737,-0.163650304338,0.0586927802882,0.195016231947,-0.15377142122,9.5326995611
8634171,-0.0083860590893,-0.0105850803394,-8.87752048736e-05,0.999908806945,-0.0342919089671,-0.165874902375,0.0577772414304,0.200806797274,-0.15906107905,9.48210764559
8634251,-0.010096930029,-0.0103810813809,-0.000104828045479,0.999895131584,-0.0367513677158,-0.17359501212,0.0589306783616,0.196380270991,-0.19096529367,9.45462553828
8634336,-0.0114393096029,-0.0105490573884,-0.000120688547036,0.999878915178,-0.032693072166,-0.179929838212,0.0600484305817,0.20042811987,-0.217290427423,9.49511827341
8634417,-0.0114449433029,-0.0117742806903,-0.000134774146312,0.999865171622,-0.0179130830538,-0.184156423929,0.0581649415451,0.226798845799,-0.220396238876,9.62595588836
8634496,-0.0111002440817,-0.0129876147589,-0.000144186740487,0.999854032174,-0.00478818897179,-0.185840995236,0.0553320878772,0.251719247665,-0.215077120767,9.68530484405
8634568,-0.0115235688732,-0.0143140103909,-0.000164976344086,0.999831130366,0.0052151977847,-0.183020527467,0.0506525452463,0.276966555923,-0.222898977538,9.66848120111
8634644,-0.0123974010497,-0.0150396187308,-0.000186487613635,0.999810021723,0.0078117093469,-0.17962548656,0.0435879190531,0.290438999716,-0.239323679736,9.6488102087
8634721,-0.014136540065,-0.0156297847468,-0.000221000165744,0.999777884944,0.00724116597691,-0.178014152077,0.0367950029684,0.299719566822,-0.270965736162,9.57978619358
8634801,-0.016690791555,-0.0160391445645,-0.000267777780441,0.999732009898,0.00434469958615,-0.177473041449,0.02761097258,0.304330226421,-0.316526608445,9.47684080184
8634881,-0.0176029755525,-0.0170404298556,-0.00030005234904,0.999699789422,0.00260681975169,-0.177148375072,0.0208234841626,0.321940672474,-0.332370963846,9.43494544058
8634961,-0.0186752611824,-0.0191139604652,-0.000357085748512,0.999642818023,0.00667237258856,-0.181210475861,0.0163253010507,0.363152721355,-0.354566845886,9.48618325678
8635041,-0.0183871213177,-0.0201867426002,-0.000371314560979,0.999627066119,0.0125172247824,-0.18535049658,0.0127750110607,0.387879950684,-0.353040324817,9.59330097946
8635121,-0.0170556387914,-0.0216573835522,-0.000369520969299,0.999619890947,0.0168755162216,-0.186983128888,0.0102191470052,0.419475699903,-0.330097756902,9.67050030203
8635201,-0.0156576649841,-0.0222719689847,-0.000348856360805,0.999629268891,0.0160849705934,-0.18413149772,0.00911131863334,0.428138082295,-0.300769905362,9.59854633356
8635282,-0.0145184417588,-0.0214331623612,-0.000311280456742,0.999664812577,0.0139078829707,-0.17986637865,0.00759524148732,0.406999293469,-0.275511749125,9.48306906234
8635361,-0.0143439069949,-0.0212007782362,-0.000304201681264,0.999672289701,0.0083447297824,-0.175178856901,0.00455714489239,0.399583263825,-0.27017308219,9.41258559878
8635441,-0.0146567684078,-0.0212991480078,-0.000312281088296,0.999665658065,0.00160131737775,-0.172792033913,0.00273428693543,0.400400889692,-0.275349587839,9.38801261293
8635522,-0.0140516855645,-0.0229299811168,-0.000322321479396,0.999638265678,-0.00840439092552,-0.173914080489,0.00589747277588,0.433213187624,-0.265287382098,9.43432096376
8635602,-0.013965617483,-0.024186292808,-0.000337908345526,0.999609859188,-0.0131307457231,-0.178418518988,0.0124779749562,0.463435053687,-0.267390344298,9.5674508473
8635682,-0.0137252271081,-0.0250283762837,-0.000343660204896,0.999592457164,-0.0125610381099,-0.182398252271,0.0189804166332,0.486356576646,-0.266497340124,9.7023954156
8635762,-0.0123629915597,-0.0254611737868,-0.000314902454047,0.999599312678,-0.00583386262011,-0.183934712119,0.0275644723155,0.501785431583,-0.243456042014,9.84058357627
8635842,-0.0108696642296,-0.0268641051311,-0.000292126509105,0.999579954239,-0.00137186726476,-0.182302447658,0.0335662858478,0.531872298989,-0.215026633021,9.88566808643
8635922,-0.00996206540661,-0.0280847311078,-0.000279906244449,0.999555864764,-0.000823120358855,-0.172809287753,0.0363159938442,0.551839780761,-0.195574785965,9.81048638165
8636002,-0.0113765496197,-0.0293005517839,-0.000333503982853,0.999505848186,-0.00773060326017,-0.164984941502,0.0383915087036,0.566693311816,-0.219816702634,9.65476524207
8636083,-0.0114641671697,-0.0297183284533,-0.000340868872924,0.999492510044,-0.0148549234312,-0.162418784059,0.0392111275577,0.569619926298,-0.219517802342,9.56779690281
8636162,-0.0106409749436,-0.0316129192288,-0.000336579593,0.999443484998,-0.0255148664557,-0.161304779655,0.0392772088087,0.601782256072,-0.20233963038,9.50101126913
8636242,-0.0100944314641,-0.0340199245162,-0.000343628242313,0.999370116178,-0.0340392825778,-0.160210686951,0.0397425476208,0.647176452032,-0.191793307036,9.492782771
8636323,-0.0102573555544,-0.0356525489029,-0.000365952815396,0.999311537256,-0.0357484117593,-0.162534061759,0.0417245111539,0.67968021326,-0.195281739837,9.51130884839
8636402,-0.011053214573,-0.0355172011828,-0.000392851153412,0.999307860739,-0.0261316377317,-0.16307670652,0.0420623091508,0.683620159206,-0.212458269976,9.60263025044
8636481,-0.0112246568641,-0.035837075181,-0.000402542855562,0.999294525693,-0.015678982639,-0.16127384307,0.0405622277031,0.69460325275,-0.217257524242,9.66939409997
8636563,-0.00987331756397,-0.0355940909708,-0.000351671781516,0.999317494401,-0.00727893927609,-0.156360914447,0.0358309682813,0.684912537588,-0.189730715717,9.60051623415
8636643,-0.00888094672511,-0.035546511056,-0.000315898793256,0.999328511824,-0.0026646033198,-0.14958194672,0.030863762321,0.675985646332,-0.168665647448,9.48856056569
8636722,-0.00935888548339,-0.034487876201,-0.000322974386188,0.999361242667,-0.00457859242212,-0.139554905223,0.0227751580072,0.648124015973,-0.175659060099,9.37757327423
8636802,-0.00984972514851,-0.0337378121072,-0.000332513628124,0.999382125307,-0.0159435473586,-0.137795580939,0.0157935451116,0.634040659584,-0.184882931177,9.378257966
8636882,-0.0116941605844,-0.0357587853193,-0.000418465276473,0.999291939709,-0.0270194209351,-0.139294126738,0.0116045773743,0.672516998289,-0.219626514077,9.38226008356
8636963,-0.0140210258423,-0.0362967117816,-0.000509302898627,0.999242563224,-0.0340906351425,-0.142321704525,0.0112196470392,0.692969179686,-0.267287722411,9.52232794955
8637042,-0.0156080907471,-0.0366747610988,-0.00057287832606,0.999205194748,-0.0340764630523,-0.146266701504,0.0131171391454,0.710986572509,-0.302109371728,9.66766023164
8637122,-0.0167401145347,-0.0366981930148,-0.00061483243694,0.999185985278,-0.0204458778314,-0.153741980429,0.0180868449624,0.723951789697,-0.329706125966,9.83674129768
8637201,-0.0162885890126,-0.037220258801,-0.000606766601608,0.999174141998,7.74850835839e-05,-0.152693176985,0.021494358514,0.733885701504,-0.320646220746,9.83164796342
8637282,-0.0152770766211,-0.0386086722203,-0.000590336842078,0.99913744443,0.0153713332628,-0.144401473812,0.022687486522,0.754929519047,-0.298211445826,9.74910446775
8637362,-0.0131881105572,-0.0383262738308,-0.000505866898644,0.999178119543,0.0198650514942,-0.130061270556,0.0195721527737,0.735473507326,-0.252668278629,9.5695732202
8637442,-0.0119599752442,-0.0369212890684,-0.000441910679765,0.999246507185,0.0166016215726,-0.122734218787,0.0164258823403,0.698900203029,-0.226060638808,9.44198259789
8637522,-0.0141606888872,-0.0362474025971,-0.000513677362657,0.999242381422,0.00485269220602,-0.126000408832,0.0119839797115,0.677913901114,-0.264444432601,9.32807867861
8637602,-0.0158158699376,-0.0401706147223,-0.000635926248901,0.999067452962,-0.00773063621294,-0.131365643351,0.00974452819566,0.753428741059,-0.296093834854,9.34927946913
8637682,-0.0167027820288,-0.0413406369789,-0.000691191210315,0.999005250768,-0.0157063233258,-0.135436164185,0.010103617532,0.781978233405,-0.315322896371,9.42688280843
8637762,-0.0158641405566,-0.0422912875853,-0.000671600539747,0.99897914142,-0.0162348349789,-0.142561067362,0.014150281687,0.812994298441,-0.304354837676,9.57998678589
8637842,-0.0163292789249,-0.0409844696624,-0.0006698992413,0.99902611534,-0.00974090098731,-0.148113079452,0.0178553503644,0.802394677209,-0.319082397235,9.75780101196
8637922,-0.0157785494839,-0.0407105469686,-0.000642966652524,0.999046182784,0.00266926063685,-0.151018596645,0.0205040816322,0.799386786794,-0.30924416002,9.78739625415
8638002,-0.0138217508701,-0.0397530653195,-0.000549944335415,0.99911378259,0.0113924277957,-0.144673795792,0.0195391800242,0.769809313288,-0.267188772624,9.6547975352
8638082,-0.0127640964165,-0.0393236469289,-0.000502360403038,0.999144872513,0.0136464976608,-0.137887084851,0.0168317887521,0.751105148519,-0.243392061182,9.52424180848
8638162,-0.0121271217727,-0.0380328122606,-0.00046159653282,0.999202794751,0.00520806816627,-0.135943508593,0.0139302838044,0.721926137207,-0.229832294814,9.46673792688
8638242,-0.0126010715968,-0.0375843032539,-0.00047397509028,0.999213895265,-0.0062403404524,-0.136905813146,0.0121893808358,0.713756116895,-0.238934686947,9.47150050515
8638323,-0.0140842720002,-0.0419505922338,-0.000591423006746,0.999020235687,-0.0246030172831,-0.141740096492,0.00986776887025,0.802227969453,-0.268816979161,9.53157947179
8638402,-0.0141866465081,-0.0446060810712,-0.000633505205437,0.998903716713,-0.0377490736888,-0.147194806869,0.00847480169092,0.861296585139,-0.273338825192,9.62077812863
8638481,-0.0137866803522,-0.0464174871029,-0.00064069473415,0.998826778699,-0.0422311870405,-0.151744703279,0.00763902138333,0.902483838534,-0.267432806834,9.68531065037
8638562,-0.0139760464345,-0.0455750106322,-0.000637683546435,0.998862944498,-0.0347038935765,-0.154048951064,0.00713755319877,0.901578232808,-0.27586020412,9.85547183456
8638643,-0.0135164911626,-0.0444528293723,-0.000601495974644,0.998919860965,-0.0263563069449,-0.153303049427,0.00598529216511,0.889542701404,-0.269903314855,9.97121549453
8638722,-0.0126422537149,-0.0456481078108,-0.000577743526856,0.998877414845,-0.0196449947201,-0.148598607831,0.00188841505322,0.907460499993,-0.250766870505,9.90467103622
8638802,-0.0122738619189,-0.0479324716463,-0.000589038115159,0.998774991432,-0.0147668272623,-0.140667662135,-0.00227247145977,0.929224506783,-0.237369642566,9.65596997647
8638881,-0.0122131706981,-0.0494359878323,-0.000604554606193,0.998702436205,-0.0126913069105,-0.135909094718,-0.00519469342902,0.940367549529,-0.231725507464,9.47251225688
8638961,-0.0128520389236,-0.0502365771847,-0.000646512365605,0.998654441451,-0.0191084158058,-0.135608094637,-0.00907647691788,0.943701492852,-0.240788875035,9.35310023865
8639041,-0.0144896773266,-0.0513460214864,-0.000745048586015,0.998575525552,-0.0267898916961,-0.137981634956,-0.0109798569497,0.960067068807,-0.270168912179,9.30707098547
8639121,-0.0161123312077,-0.0529185992126,-0.000853949847444,0.998468469913,-0.034804297722,-0.14281127964,-0.00658791416984,0.993828430981,-0.301683304095,9.34457571873
8639201,-0.0166138791634,-0.0546442942082,-0.000909338429021,0.99836724367,-0.0387615612146,-0.14570906645,-0.0039527485019,1.02940813891,-0.311972813267,9.370430441
8639281,-0.0172626557791,-0.0542939654659,-0.000938783256687,0.998375322569,-0.0330478081424,-0.147022048475,0.00188525151348,1.0378272747,-0.328920426242,9.50804755903
8639361,-0.0175109083235,-0.0531410084302,-0.000932007746952,0.998433038653,-0.0181259246396,-0.143552937075,0.00368529127686,1.04024513435,-0.341722615852,9.73857949245
8639441,-0.01744646647,-0.052649208871,-0.00091995918076,0.998460232202,-0.00406451380036,-0.13721456962,0.00221117476612,1.04385063164,-0.344854946465,9.86444880387
8639521,-0.0174704769719,-0.0521011034596,-0.000911608960417,0.998488571002,0.0111833736866,-0.12532343798,0.00132670485967,1.02781799739,-0.343621882674,9.81595074472
8639600,-0.0167557650881,-0.0516156065244,-0.000866135596344,0.998526075427,0.0207577962402,-0.116911688811,0.000796022915802,1.00383320688,-0.324925531948,9.67839457403
8639681,-0.0169992844183,-0.0516824211459,-0.000879867708135,0.998518491319,0.0218198590963,-0.110587569126,-0.00250221668075,0.992315374568,-0.325439309647,9.55468060306
8639761,-0.0165734294062,-0.0530018700961,-0.000879780708588,0.998456483373,0.0130919154578,-0.109347237683,-0.00788668093038,1.00958611195,-0.31473424863,9.47733975832
8639841,-0.0168020400824,-0.0558270168363,-0.000939606393577,0.998298629058,0.00530100890589,-0.111582869248,-0.0106916694187,1.05897404144,-0.317648598495,9.43332945314
8639921,-0.0176527736617,-0.058742741677,-0.00103892912375,0.998116521509,-0.0032047455784,-0.114201318371,-0.00854345195853,1.11398533673,-0.333522998208,9.42535862281
8640002,-0.0183265176064,-0.0598481782661,-0.00109896415723,0.998038639827,-0.00873388833043,-0.114921007722,-0.00512607117512,1.13717588709,-0.346878360692,9.44140567906
8640081,-0.0189925262522,-0.0581014681514,-0.00110556173294,0.99812939095,-0.00524033299826,-0.119184031886,-0.00307564270507,1.11541661258,-0.363271283994,9.54153473556
8640161,-0.0189398669339,-0.0558529262289,-0.00105969213862,0.998258788654,0.00536960143029,-0.125573056937,-0.00184538562304,1.08847467824,-0.367839794322,9.68971879055
8640240,-0.0182285046633,-0.0550813722027,-0.00100574577536,0.998314956579,0.0151410825791,-0.128980781906,0.00187259905641,1.08068922345,-0.356455110724,9.75708140861
8640321,-0.0158170724444,-0.0551829862812,-0.000874275333106,0.998350586661,0.0205782812069,-0.126342826212,0.00623184017139,1.07625737074,-0.307486351347,9.70101265254
8640401,-0.0140636095311,-0.0550246617108,-0.000775096636237,0.998385647291,0.0204350798919,-0.120928842242,0.00884738484038,1.06713391463,-0.271880171404,9.64797836545
8640481,-0.0142880449194,-0.0548234194675,-0.000784579888703,0.99839352406,0.0143894982425,-0.112146481061,0.00871395139592,1.04537926968,-0.271585438047,9.48615264305
8640561,-0.0145207517653,-0.0546162251538,-0.000794338385972,0.998401514795,0.00565386851525,-0.10900551466,0.00522837083755,1.02586213822,-0.271887438365,9.34452505873
8640642,-0.0145788083652,-0.0549959598999,-0.000803076691923,0.998379816407,-0.00256733975132,-0.110952145372,0.00313702250253,1.02779880881,-0.271589798224,9.29689805404
8640721,-0.014961341963,-0.0578013559679,-0.000866331723224,0.998215613464,-0.0126083454488,-0.119782544906,0.00188221350152,1.08474570985,-0.27979091995,9.33104993472
8640806,-0.0140709542914,-0.0599770800186,-0.000845541096069,0.998100217001,-0.0182072588058,-0.126783544872,0.00112932810091,1.1320819596,-0.26460029904,9.38194742421
8640881,-0.0151833793822,-0.0590057294502,-0.000897574279813,0.998141765103,-0.0143298757752,-0.130558454791,0.000677596860547,1.1291196677,-0.289483590069,9.51232412713
8640965,-0.0147976449954,-0.0560241204115,-0.000830420644299,0.998319406821,-0.00476671491196,-0.134951851049,0.000406558116328,1.09358404916,-0.287893573231,9.70858429073
8641041,-0.0145902644896,-0.0540179662424,-0.000789373321191,0.998433052535,0.00139687166744,-0.13929064905,0.00237238517711,1.07274151836,-0.288854924456,9.88068876658
8641121,-0.0131317093463,-0.056082730828,-0.000737687055824,0.998339492022,0.000838123000467,-0.144448068219,0.00653171184381,1.11602089857,-0.260461895103,9.89847845282
8641201,-0.0125319295767,-0.0574826075655,-0.000721618128871,0.998267589294,-0.00247695662995,-0.14754251972,0.0107300680897,1.13360882088,-0.246299119484,9.80763811417
8641281,-0.0135053635012,-0.0579355637284,-0.000783829274539,0.998228661792,-0.00829721496136,-0.149399190621,0.0153775321445,1.12572622148,-0.261504050548,9.66191482773
8641361,-0.0121985360184,-0.0589662630679,-0.000720609860123,0.998185181347,-0.0164719606363,-0.1500875031,0.0207201509462,1.13631955247,-0.234235143952,9.58142404068
8641441,-0.0107313277664,-0.0608918419175,-0.000654703110596,0.998086465972,-0.02393094841,-0.150074800526,0.0247771023501,1.17547611381,-0.206381632025,9.59561823178
8641521,-0.010162611624,-0.0654668203506,-0.00066677893471,0.997802772177,-0.0305347913816,-0.150918559105,0.0255085129466,1.26121929377,-0.194936768522,9.56798230137
8641601,-0.00989737566955,-0.0673663766414,-0.00066830147167,0.997678989769,-0.034071407103,-0.151850504313,0.0233932189357,1.29087796664,-0.188788110918,9.51333293673
8641683,-0.0113177960497,-0.0676091681463,-0.000766991205494,0.997647392419,-0.0344906162901,-0.14985553107,0.0178671419146,1.29047723775,-0.215026437107,9.47503665413
8641761,-0.0131457716675,-0.066508318313,-0.000876319679235,0.997698884607,-0.0330393815564,-0.144827336571,0.0107202851488,1.26653420398,-0.249204785604,9.45421366606
8641842,-0.0143808189944,-0.0667964765889,-0.000962838659311,0.997662515935,-0.0325943307777,-0.141384729809,0.00430372078195,1.27754692131,-0.273781937525,9.49391346941
8641921,-0.0159941123932,-0.0673570259696,-0.00107990746304,0.997600146963,-0.0310502301261,-0.144001756429,-0.00124897808399,1.29684382051,-0.306484741128,9.55484347716
8642002,-0.0173042576247,-0.0681242855996,-0.00118176379684,0.997526063727,-0.0279953194278,-0.146423352523,-0.00500628746501,1.32326601032,-0.334486129101,9.63713073351
8642082,-0.0176739710545,-0.0699674821973,-0.00123983684699,0.997391921457,-0.0197770220869,-0.14489647975,-0.00938912340094,1.36545554247,-0.34314667624,9.67836280168
8642162,-0.0165338952479,-0.0706448584166,-0.00117112199291,0.997363806622,-0.0118662132522,-0.138446385287,-0.0128702050854,1.37377042998,-0.319852004767,9.64348642124
8642242,-0.0151183279266,-0.0707118786214,-0.00107185187321,0.997381630829,-0.0071197279513,-0.132873568363,-0.0141074739732,1.37277385833,-0.291988832255,9.62830667696
8642322,-0.0159586113768,-0.0733467399468,-0.0011738245119,0.997178118792,-0.00725166720101,-0.128252808025,-0.0139984551829,1.41718690655,-0.306634970496,9.57658204085
8642402,-0.0163292230505,-0.0748400762696,-0.001225682469,0.997061089984,-0.00988497111961,-0.124203281637,-0.0130816637858,1.44191937415,-0.312789031614,9.54578667934
8642482,-0.0173969798944,-0.0752732268665,-0.00131345363159,0.997010311505,-0.0140190938395,-0.12049649562,-0.00997744857881,1.44311190525,-0.331564938744,9.49690310135
8642562,-0.0185794720873,-0.0750577941376,-0.00139872322385,0.997005102459,-0.0143711171642,-0.119123804133,-0.00598646914729,1.43113815512,-0.352167869496,9.44458861863
8642644,-0.0192213434951,-0.0743458578035,-0.00143326079706,0.997046227186,-0.0124538808517,-0.117023119056,-0.00359188148837,1.41820782105,-0.364529627948,9.44983121439
8642724,-0.0189800707755,-0.0742064002058,-0.00141259396333,0.997061267756,-0.00747232851101,-0.11278287758,-2.66785857126e-05,1.42218120874,-0.36165161588,9.49463588073
8642802,-0.0198065339432,-0.0741280184873,-0.00147256179279,0.997050936337,-0.0044833971066,-0.108535972448,0.00296382327881,1.42432582119,-0.378360161423,9.51840621838
8642882,-0.0200573187284,-0.0727003278547,-0.00146233977201,0.997151055687,0.0011411722892,-0.103859379062,0.0060351945819,1.41220505937,-0.387427608084,9.62556344538
8642963,-0.0201606390265,-0.0727869166036,-0.00147163574225,0.997142641598,0.0113269549101,-0.102756183276,0.00915508754815,1.42815635837,-0.393346916413,9.72241892416
8643042,-0.0194881479795,-0.0742960221085,-0.00145218345954,0.997044735381,0.0182898046055,-0.101668575743,0.00974995314351,1.46597871737,-0.382293871283,9.77454670728
8643122,-0.0188514784267,-0.0771757723728,-0.00145949203365,0.996838197404,0.0186363038696,-0.0954820404243,0.00968118243926,1.51500835103,-0.367761178727,9.71867443672
8643202,-0.0185475384496,-0.0780377066014,-0.00145208772734,0.996776803807,0.0162900630593,-0.0900673589871,0.0100656100782,1.51928701379,-0.358802143027,9.63678820085
8643282,-0.0182882591582,-0.0774344430958,-0.00142064647979,0.996828685564,0.0119024881429,-0.0842644097561,0.00987057660007,1.48953248904,-0.349595998951,9.52325243467
8643362,-0.0171695543158,-0.0795797971825,-0.00137090148289,0.996679679192,0.00501304257843,-0.0761000495414,0.0101792465747,1.52147916871,-0.326115800054,9.46135589928
8643442,-0.0154409485233,-0.0808246723392,-0.00125225734003,0.996607937607,-0.000397694944638,-0.0720528135355,0.0103644485594,1.54208369752,-0.292634647269,9.44025912917
8643522,-0.0153626384617,-0.0814037099552,-0.00125489005814,0.996562015429,-0.00194137721263,-0.0730299924236,0.0109012598117,1.55492525513,-0.291460148713,9.44986714254
8643602,-0.0151534736557,-0.0808618800612,-0.00122950718522,0.996609360232,-0.00116482632758,-0.0744676798794,0.0116490366246,1.54395541675,-0.287403567255,9.44749166492
8643682,-0.0152714582306,-0.07992570067,-0.00122464404367,0.996683081618,0.00185524457223,-0.0757559824144,0.0120977027123,1.52899380791,-0.290236862033,9.46761419329
8643762,-0.0153822760376,-0.0791269997232,-0.00122112799026,0.996745109015,0.00664711754234,-0.0744005136281,0.00981276199615,1.51762264095,-0.293133939729,9.4938135001
8643842,-0.0150904493584,-0.0788338140449,-0.00119348926591,0.996772834544,0.0116506916317,-0.070607401926,0.00588765719769,1.51630660459,-0.288407841865,9.52174351266
8643922,-0.0150828681463,-0.0777026405253,-0.00117566817754,0.996861788087,0.0184840466385,-0.0615204939214,0.00353259431861,1.50019409215,-0.289402905803,9.5602887553
8644002,-0.0156908005614,-0.0756390002967,-0.00119039444434,0.99701109491,0.0234354397655,-0.0547912789342,-0.000860273839066,1.46778166891,-0.302689212964,9.61310400147
8644082,-0.0166756213456,-0.0730727930212,-0.00122197231877,0.99718644062,0.02300075515,-0.0528822002493,-0.00562444504098,1.42798350086,-0.324068526558,9.68573399756
8644162,-0.0171942492575,-0.074223475,-0.00127993825941,0.997092571083,0.0189087338275,-0.0559936536529,-0.00933432788506,1.46683268352,-0.337853795378,9.79204007871
8644242,-0.0175658479325,-0.076920659118,-0.00135540336444,0.996881545656,0.0160278309726,-0.058711905818,-0.01113456753,1.52820999952,-0.346843217168,9.83762779479
8644323,-0.016521501559,-0.0805144782732,-0.00133473734793,0.996615611583,0.0130222190753,-0.0573630266868,-0.0109376411326,1.62824331294,-0.331886156131,10.0059989022
8644402,-0.0213119140591,-0.0822028130057,-0.00175825330713,0.996386174331,0.0141986823671,-0.0505940383477,-0.0103937952327,1.69903720847,-0.437354758864,10.2176336834
8644482,-0.0238874082519,-0.0846832179402,-0.00203074293559,0.996119480991,0.0319321628007,-0.025248142271,-0.0117702479387,1.73289441981,-0.485073609713,10.106630907
8644562,-0.0221768496935,-0.0883403965379,-0.00196729268418,0.995841499154,0.0506603622286,0.00741268789486,-0.0108933593164,1.77379888089,-0.441639450252,9.9093058306
8644641,-0.0216785358799,-0.0923707819331,-0.0020115421414,0.995486631465,0.0631743520697,0.0316917766705,-0.00951584602004,1.83401516227,-0.426592282212,9.78827716291
8644722,-0.0219791729243,-0.097095989956,-0.00214474897331,0.995029991882,0.0766424068349,0.0586042417183,-0.0133719287183,1.90031187202,-0.425943687198,9.63497536635
8644802,-0.0231767472725,-0.0998823652583,-0.00232722078831,0.994726563202,0.0868516900013,0.0802856915459,-0.0182397187061,1.9314707719,-0.443511042641,9.51043314584
8644882,-0.0236559711036,-0.100803729245,-0.00239750347937,0.994622167046,0.0942543300855,0.099254222303,-0.024140223129,1.943222927,-0.451178413915,9.47760634258
8644963,-0.0230533958315,-0.102453523941,-0.00237504087835,0.994467785076,0.101675744566,0.115743621495,-0.02980897609,1.96296348887,-0.436864643564,9.41553289124
8645042,-0.02278791824,-0.104867923428,-0.00240360939767,0.994222134173,0.107831353501,0.130745541747,-0.0340616079896,1.99922868292,-0.429473482183,9.36176882898
8645122,-0.0226700169274,-0.105186307433,-0.00239850780278,0.994191208079,0.113653169168,0.155922916235,-0.0378902573137,1.99728520292,-0.425517625687,9.32352488748
8645202,-0.0231403789504,-0.103686727906,-0.00241301301419,0.99433785138,0.117997638692,0.179117452095,-0.0401874469082,1.96954347649,-0.434636279758,9.33098488366
8645282,-0.0222648538003,-0.100095337231,-0.00224042363254,0.994726183556,0.124009840898,0.20452780527,-0.0419914507263,1.90477498726,-0.419277917757,9.35940289797
8645362,-0.0213724455982,-0.09683531897,-0.00207986391927,0.995068748246,0.133151133021,0.229139198528,-0.0443509232016,1.84771796111,-0.40383797624,9.39488905934
8645442,-0.0208655486789,-0.0948440490931,-0.00198837523258,0.995271461258,0.140764358601,0.247311554974,-0.0466179868097,1.81372316558,-0.395292271828,9.42168741998
8645522,-0.0209061631527,-0.090669484637,-0.00190381405377,0.995659757342,0.150440574687,0.265451699886,-0.0501066752818,1.73083762493,-0.395671512999,9.41621862142
8645602,-0.0186200220919,-0.0873948989662,-0.00163383294113,0.995998371988,0.159651824831,0.280166997387,-0.0504971281193,1.70193585499,-0.359746612633,9.61668390357
8645682,-0.0143060047377,-0.0821090150694,-0.00117875405344,0.996519973915,0.160921674302,0.299638427424,-0.0469001892686,1.61683888604,-0.279773151906,9.74079379551
8645762,-0.0089466124044,-0.0787804681644,-0.000707044378031,0.996851591788,0.147635811957,0.317706636368,-0.0396337452206,1.54040216707,-0.173849395294,9.6833392192
8645842,-0.00550952114099,-0.0751997253185,-0.000415497320549,0.997153184747,0.134981703873,0.327696181612,-0.0339968086075,1.46461261494,-0.106703838837,9.6546125574
8645922,-0.00100806069906,-0.0717586979674,-7.25241259994e-05,0.997421509604,0.119726817917,0.334966978942,-0.0301889565781,1.39447860656,-0.0194901524231,9.64120728297
8646002,0.00137793935052,-0.0679030404158,9.37828188467e-05,0.997690968983,0.106316985729,0.341457907648,-0.0257757950532,1.3174428573,0.0266131351087,9.63364295865
8646082,0.00580604754343,-0.0633021651239,0.00036828024564,0.997977449681,0.0910343553708,0.34492677481,-0.0180196174007,1.22309795437,0.111735947471,9.60181046513
8646162,0.00913374412333,-0.0574104194631,0.000525260432771,0.9983087411,0.0793106367873,0.344879644799,-0.0108117704404,1.10376292912,0.175020063356,9.56331793557
8646242,0.010497164037,-0.0540188453083,0.000567905296792,0.998484577438,0.0718507155757,0.343574296609,-0.0047843020184,1.03383785513,0.200301264088,9.52466010705
8646324,0.0125000355603,-0.0489748158047,0.00061297055869,0.998721603248,0.0631178622341,0.337257116896,0.00436614983382,0.93849211371,0.238933160796,9.54312451882
8646402,0.0145804162918,-0.0446544318887,0.000651799874999,0.998895874619,0.0544726297375,0.33133835876,0.0124105613139,0.854469610267,0.278392870111,9.53385245177
8646482,0.0161868605784,-0.0421543324236,0.000683043179823,0.998979745167,0.0450285896249,0.323530203265,0.0189399684478,0.805732049363,0.308772460348,9.52517674938
8646562,0.0173444397773,-0.0403558097501,0.000700625310923,0.999034578056,0.03723371525,0.312885649107,0.0266888232813,0.767870386845,0.32939441615,9.48334004255
8646644,0.0177079030778,-0.0391549627393,0.000693993540909,0.999075991822,0.0308540303793,0.305221846428,0.0330408964273,0.742759187673,0.335303245149,9.45560439662
8646722,0.018362415387,-0.0373019670989,0.000685547155706,0.999135083448,0.0214922486578,0.298495114513,0.0368521403148,0.709496535553,0.348664769355,9.48229805912
8646802,0.0188966547374,-0.0341902293522,0.000646574637422,0.999236471811,0.0128953491947,0.292756315118,0.0370104363401,0.656738381537,0.362427767863,9.57875943239
8646882,0.0190360732332,-0.0313131650305,0.000596480446149,0.999328153222,-0.000350901650975,0.285481824928,0.0298686829104,0.604253934684,0.366854844312,9.62562292872
8646963,0.0184531222362,-0.027240031744,0.000502935996271,0.999458458369,-0.0176638335105,0.275157469954,0.0162184495004,0.528709956025,0.357779502046,9.6855839086
8647042,0.0177264618492,-0.0250565450124,0.000444373295137,0.999528761284,-0.0318828031794,0.265131646416,0.00377140883975,0.48697487132,0.344194011042,9.70073094208
8647122,0.0152339537977,-0.0211603025281,0.000322464717341,0.999659974324,-0.0455224657183,0.248899590818,-0.00880509629416,0.411176745302,0.295820128549,9.70359423786
8647202,0.0130430002738,-0.0175052561599,0.000228375489937,0.999761668597,-0.0558347135489,0.231497936353,-0.0163509993745,0.340558752259,0.253627689922,9.71871974462
8647282,0.0103988171281,-0.0156675320636,0.000162952616078,0.999823167609,-0.0650018926776,0.207009171646,-0.0153445704237,0.303694620252,0.201497168153,9.68565709946
8647362,0.00809909544826,-0.0151677002536,0.000122862816825,0.999852154284,-0.0713535802776,0.186356251961,-0.0113351925615,0.293307729182,0.156571905628,9.66390415103
8647442,0.00628613411157,-0.0164936122412,0.000103697214027,0.999844205124,-0.0755902828992,0.163747938675,-0.00339559504523,0.318200216123,0.121237042303,9.64127557534
8647522,0.00337284672841,-0.0167136786007,5.63808724859e-05,0.99985462627,-0.0785579945335,0.141243459413,0.00519937401772,0.321404120152,0.064841359903,9.61069959813
8647602,0.000330936057305,-0.0168875152924,5.5894851191e-06,0.999857340963,-0.08204138176,0.123058181179,0.00993066539402,0.323805302902,0.00634367336368,9.58301662533
8647682,-0.00298861154518,-0.0185484515262,-5.54439025324e-05,0.999823494459,-0.0845571041574,0.104910283194,0.00978960978957,0.35541295347,-0.0572459383158,9.57550480796
8647762,-0.00583378615464,-0.0206836969859,-0.000120692139936,0.999769041855,-0.0852151574728,0.0918930940959,0.00800221618105,0.39784072008,-0.112159116945,9.61026262477
8647842,-0.00888620752907,-0.0255253160255,-0.000226906154637,0.999634654297,-0.0851842994007,0.078548809838,0.00480132970863,0.489377345866,-0.170246141553,9.57485357584
8647922,-0.0129873222932,-0.0303990953533,-0.000395018772035,0.999453384817,-0.078354743574,0.0658596486071,0.000752347517869,0.582127707569,-0.248433406368,9.55743886914
8648003,-0.0156158602684,-0.033998181788,-0.000531282888103,0.999299747964,-0.0687230392789,0.0573947717457,-0.00210273185805,0.653819075713,-0.29989474841,9.59295871699
8648082,-0.0177907895386,-0.0383205019764,-0.000682361415054,0.999106881829,-0.0574100459029,0.0535929158132,-0.00126163911483,0.734901702996,-0.340587780443,9.56016166818
8648162,-0.0200232455877,-0.0419180168677,-0.000840242175417,0.998920038587,-0.0497708697544,0.0525888724381,-0.000756983468898,0.803423153145,-0.382960112113,9.54838430438
8648242,-0.0208061425019,-0.043645937261,-0.000909167342875,0.99882997052,-0.0417818435736,0.0553919669047,0.00209995028743,0.839029359417,-0.399046124641,9.57387902867
8648323,-0.0219795983144,-0.0444207131865,-0.000977551219238,0.998770615252,-0.0327315272505,0.0600536540149,0.00551687078708,0.853689318531,-0.421387000956,9.5690645693
8648402,-0.0224094303441,-0.0439444324378,-0.000985970487059,0.998782124465,-0.0264499573337,0.0645534265269,0.00714133302541,0.845725882378,-0.430242543591,9.58269588514
8648482,-0.0222389855201,-0.0449258765025,-0.00100036411974,0.998742255247,-0.0231067054451,0.0719358807102,0.00428479981524,0.867523459114,-0.428373264192,9.61385901057
8648562,-0.0216885233229,-0.0445568133582,-0.000967560689624,0.998770925771,-0.0215264443733,0.078068113466,0.000868119643298,0.863603173369,-0.419350831074,9.65075281845
8648643,-0.0217107348318,-0.0446985282248,-0.000971638735145,0.998764107027,-0.0175984573001,0.0834502133653,-0.00288464870572,0.862208682586,-0.417768093859,9.6044149357
8648722,-0.0215103270407,-0.0421860539385,-0.000908455304388,0.998877779006,-0.0105590743801,0.0905106838581,-0.0042849295922,0.807981291094,-0.411072367546,9.53974150048
8648802,-0.0207694726644,-0.0407728699933,-0.000847719255138,0.998952192775,-0.00250423407487,0.0981524866454,-0.00469940806263,0.781909200682,-0.397478125117,9.55432813637
8648885,-0.0187087961402,-0.0385511936479,-0.000721909705944,0.999081210544,0.00573419059993,0.104014638502,-0.00281964483758,0.739929728173,-0.358436378244,9.56691084056
8648962,-0.017986602942,-0.0370363932279,-0.00066672440712,0.999151811873,0.0128056957121,0.106254859432,-0.00169178690255,0.708756540517,-0.343630456097,9.54094163984
8649042,-0.0160847020861,-0.0333597802293,-0.000536950569168,0.999313824134,0.0191770490867,0.108024682051,0.00409320859602,0.640013813226,-0.308171264381,9.57037111061
8649122,-0.0136125705754,-0.0301236413088,-0.000410284455391,0.999453398525,0.0208714108042,0.109937955746,0.00671282577223,0.57722036191,-0.260559531089,9.56336851598
8649202,-0.0119765303978,-0.0268256122924,-0.000321416506988,0.999568329799,0.0218880278347,0.110234539839,0.00658183583211,0.514165753523,-0.229358869288,9.5697014465
8649282,-0.0103916066774,-0.0252990399503,-0.000262996064046,0.999625881979,0.0267548986676,0.108284039988,0.00394910149927,0.485191534633,-0.199146304239,9.57733192747
8649362,-0.00873658297783,-0.0246046291681,-0.000215033697754,0.999659060931,0.0318034714747,0.10498528977,0.00236946089956,0.472355986454,-0.167611235913,9.58837456053
8649442,-0.00638921295395,-0.0251848105212,-0.000160965462512,0.99966238169,0.0352583052204,0.100026209209,-0.0015581538905,0.482611169997,-0.122353976655,9.57129754394
8649522,-0.00424648358725,-0.0245002960501,-0.000104072284395,0.999690798217,0.0360541352834,0.095348000627,-0.004340412826,0.470807767672,-0.0815526716375,9.59911914038
8649602,-0.00262615344939,-0.0228965240035,-6.01457608563e-05,0.99973438917,0.0361059432597,0.0899869351088,-0.0026042476956,0.441459650838,-0.0506075441446,9.63257150986
8649682,-0.00090239073282,-0.0201192563385,-1.81591135048e-05,0.999797179875,0.0335828876768,0.0816620150603,0.000565901689952,0.388895436499,-0.0174358375219,9.65886785587
8649762,-0.000268716272364,-0.0189017603414,-5.08011834822e-06,0.999821309646,0.0299406040197,0.0745386127239,0.00331937144421,0.36549719354,-0.00519425886081,9.6631534955
8649842,0.00105758607457,-0.0187098243951,1.97907250609e-05,0.999824396377,0.0230726431494,0.065581980646,0.00624852348114,0.360077373741,0.020346620953,9.61760142592
8649922,0.00191274153104,-0.0185680281917,3.55220277079e-05,0.999825769065,0.0155463461355,0.0550997206617,0.00928308488769,0.358022582692,0.0368682496714,9.63576001571
8650002,0.00258608825369,-0.0185115883383,4.78809659533e-05,0.999825300216,0.00932780768128,0.0462562243023,0.0111038217316,0.357268548394,0.0498936890607,9.64473980825
8650082,0.00269545877525,-0.0188998860579,5.09531501161e-05,0.999817746498,0.00176547405561,0.0366932258721,0.0109191936536,0.362801631966,0.0517234485438,9.59266684394
8650162,0.00224919165002,-0.0199293861467,4.48340268668e-05,0.999798859118,-0.00234623605833,0.030104046691,0.00910565656093,0.381204952568,0.0430050774271,9.55807118302
8650242,0.00180883209915,-0.022070738827,3.99320532023e-05,0.999754774442,-0.001407741635,0.024873468998,0.00546339393656,0.423132146346,0.0346615925988,9.57873347519
8650322,0.000846270572999,-0.0239465113458,2.02710480448e-05,0.999712882787,-0.0042501654727,0.0204580521978,0.00327803636193,0.460020050747,0.016247972405,9.59687693448
8650402,0.000108813494524,-0.0254306416233,2.76809223107e-06,0.99967658301,-0.00765838002116,0.0173831120562,0.00196682181716,0.488138297538,0.0020873381305,9.58813055644
8650482,-0.00113394061453,-0.0270682112958,-3.07050145734e-05,0.999632945222,-0.0109803789346,0.0142610777869,0.0011800930903,0.519135035408,-0.0217319330592,9.57881258679
8650562,-0.00152672087987,-0.0284267370917,-4.34172895798e-05,0.999594711799,-0.0146763385286,0.0123878572253,0.000708055854178,0.546352204106,-0.0293197311246,9.59812150227
8650644,-0.00215703482665,-0.0294832530409,-6.3624210894e-05,0.999562944963,-0.0202994347766,0.0125409950727,0.000424833512507,0.568189169143,-0.0415338552763,9.62311438086
8650722,-0.00388513339289,-0.0295020900888,-0.000114670335794,0.999557161582,-0.023247602464,0.0139099479656,0.000254900107504,0.567883818869,-0.074719707697,9.61153446958
8650802,-0.00539175076032,-0.0297432161897,-0.00016044132734,0.99954301777,-0.0245908130149,0.0160083898857,0.000152940064502,0.57272843219,-0.103729185458,9.61440274962
8650882,-0.00688790451829,-0.0295240481899,-0.000203452348445,0.999540317324,-0.0253967393455,0.019395905345,9.17640387014e-05,0.567973754871,-0.132387619917,9.60511039
8650963,-0.00837321916338,-0.0296988422454,-0.000248793393009,0.999523789648,-0.0246032249595,0.0214284146206,5.50584232209e-05,0.570148771965,-0.16059600823,9.58445150378
8651042,-0.0092871639365,-0.0297174498952,-0.000276124706574,0.999515155219,-0.0190188355903,0.0230736102475,3.30350539325e-05,0.56858074023,-0.177521041217,9.55170545793
8651126,-0.0109751643383,-0.0293832718468,-0.000322645007237,0.999507911426,-0.0160938920303,0.0266148679923,1.98210323595e-05,0.562612097702,-0.209942136449,9.55839404868
8651202,-0.0124716707631,-0.0297992363552,-0.000371840355772,0.99947802611,-0.0156159960786,0.0295910027622,1.18926194157e-05,0.571001920487,-0.238732180063,9.56432256446
8651282,-0.0132830220594,-0.0288454762375,-0.000383348477623,0.999495549199,-0.0144778783847,0.0326537538085,7.13557164942e-06,0.552333217722,-0.254090844903,9.55782402696
8651362,-0.0135638276315,-0.0272853160972,-0.000370265279064,0.999535590667,-0.0129436276455,0.0344914044363,4.28134298965e-06,0.524372584442,-0.260433001815,9.59390807218
8651442,-0.0129806927006,-0.024858436422,-0.000322806700094,0.999606650414,-0.010320316956,0.0338912345671,2.56880579379e-06,0.479344624884,-0.250112506167,9.62848718828
8651522,-0.0126126422102,-0.0228646180268,-0.000288481628637,0.999658965486,-0.00619219017363,0.0309769922768,1.54128347628e-06,0.439878000516,-0.242483687782,9.60781496922
8651602,-0.0124236988119,-0.0218297702394,-0.000271292091425,0.99968446984,-0.00371531410418,0.0283770667797,9.24770085765e-07,0.41954990822,-0.238624657249,9.59900294027
8651682,-0.012047447259,-0.0194706483964,-0.000234633127051,0.999737814536,0.000324951906267,0.0255400412971,5.54862051459e-07,0.373594809434,-0.231041995277,9.58485717676
8651762,-0.0120178695148,-0.0183958539004,-0.000221132369046,0.999758528082,0.00274911151253,0.0229864458846,0.00170309316308,0.352725514811,-0.23032312075,9.57876392031
8651842,-0.0106931697498,-0.0189710746198,-0.000202909045485,0.999762828513,0.00590636752214,0.0184744582068,0.0027246161437,0.36342769414,-0.204752678603,9.57055898329
8651922,-0.0103239949946,-0.0196452860695,-0.000202867803819,0.999753688019,0.00992917143521,0.0110846749241,0.00589167030084,0.376552766387,-0.197790119124,9.57569166805
8652002,-0.00949554833938,-0.0199366973945,-0.000189356051403,0.999756133666,0.0123428537831,0.00665080495445,0.00864328291805,0.381554767742,-0.181641575137,9.56129360679
8652082,-0.00886605851118,-0.0198735033036,-0.000176241381501,0.999763174863,0.0137910631918,0.000584962480976,0.00859149024252,0.380246405567,-0.169558247084,9.55911911451
8652162,-0.00822422162162,-0.0200027457566,-0.000164545503759,0.999766085275,0.0142342987755,-0.00348023306457,0.00728334445282,0.383292110918,-0.157519846932,9.5736161501
8652242,-0.00696651120383,-0.0197455495019,-0.000137587756983,0.999780756999,0.0136488600029,-0.00634504045336,0.00437000667169,0.378655189647,-0.13353739522,9.58159611096
8652324,-0.0055530118215,-0.0209700274253,-0.000116474219307,0.999764676533,0.0124462166163,-0.00976668513249,0.00262200400302,0.402209255145,-0.106458655394,9.58303220515
8652402,-0.00425508811952,-0.0224002555928,-9.53398476099e-05,0.999740023048,0.0117246305844,-0.0126710520629,0.00157320240181,0.429749223742,-0.0815922855213,9.58485154233
8652482,-0.00342418521761,-0.023963647374,-8.20800195826e-05,0.999706962976,0.0108659889038,-0.015265052344,0.000943921441086,0.460159574528,-0.0657147829339,9.59264690928
8652562,-0.00274977109152,-0.0246709867449,-6.78604779808e-05,0.999691840802,0.00949942377252,-0.0172471425742,0.000566352864652,0.474335642178,-0.0528363990572,9.60426731427
8652644,-0.00210177436571,-0.0258255348548,-5.42976773497e-05,0.99966425431,0.00740241450936,-0.0184363967123,0.00289395208756,0.495769971732,-0.0403209654109,9.58873406166
8652722,-0.00231062907585,-0.0270570070371,-6.2541771337e-05,0.999631219727,0.00444144870562,-0.0174471889493,0.00429051162131,0.51916505677,-0.0443038731918,9.58324483275
8652802,-0.00164790953333,-0.0276389551942,-4.55639664456e-05,0.999616611744,0.00266486922337,-0.0160022841686,0.00555413740302,0.530568485966,-0.0316101474014,9.58713390038
8652882,-0.00237418889489,-0.028642187289,-6.80300657629e-05,0.99958690653,-0.00095521883475,-0.0130068909929,0.00333248244181,0.549860392117,-0.0455417268686,9.58683371913
8652965,-0.002586237996,-0.0295038712494,-7.63375208007e-05,0.999561317342,-0.00355296173108,-0.00993258490302,0.00199948946509,0.566223939128,-0.0495911115606,9.5830623079
8653042,-0.00346048410268,-0.0294526394328,-0.000101965236724,0.999560181622,-0.00468591740742,-0.00595955094181,0.00119969367905,0.565507580029,-0.0663859523368,9.5875032258
8653128,-0.0041457988789,-0.0293274352042,-0.000121639016708,0.999561253301,-0.00536569081323,-0.00187297031924,0.000719816207431,0.563401823408,-0.0795753189606,9.59256197821
8653202,-0.0049384104599,-0.0289133311605,-0.000142847362409,0.999569712915,-0.00619924491817,0.00100466811577,0.000431889724459,0.556152865285,-0.0949109640815,9.60493461612
8653282,-0.00554957353082,-0.0281792196667,-0.000156447190807,0.999587469578,-0.00669937738114,0.00443401142262,0.000259133834675,0.542466103937,-0.10674597298,9.61307645937
8653362,-0.006238751146,-0.0275684735405,-0.000172061595858,0.999600433996,-0.00742514692038,0.00734299752965,0.000155480300805,0.529944484139,-0.11983248247,9.59952621254
8653442,-0.00663560658709,-0.0261726775842,-0.000173734935836,0.999635398278,-0.00871198876685,0.0099397693168,9.32881804831e-05,0.503038478814,-0.127444967997,9.59905750975
8653522,-0.00726949950063,-0.0244904503206,-0.000178091442397,0.999673616989,-0.00990978393619,0.0119235224505,5.59729082899e-05,0.470853724495,-0.139673904627,9.60308585106
8653602,-0.00771401993137,-0.0230402774334,-0.000177785648715,0.999704760369,-0.0106284610378,0.0126880842693,-0.00166917650087,0.443642006426,-0.1484477876,9.61843154482
8653683,-0.00833577945283,-0.0216459409854,-0.000180484352753,0.999730931524,-0.0102082871758,0.0114440611148,-0.00100150590052,0.416780488279,-0.160415882033,9.61878041493
8653766,-0.00853072953126,-0.0208052276124,-0.000177528660054,0.999747136851,-0.00995618285866,0.00984626709909,-0.000600903540315,0.400184737059,-0.164005436202,9.60941293035
8653842,-0.00862191646276,-0.0201897838472,-0.000174116596466,0.999758973387,-0.00852785008397,0.00590776025945,-0.000360542124189,0.387593664501,-0.165440908206,9.59110317081
8653921,-0.0085096472179,-0.0192472100324,-0.000163823249656,0.999778527461,-0.00681947029623,0.00354465615567,-0.000216325274513,0.369265113496,-0.16318972925,9.5856239789
8654002,-0.00892625422689,-0.0188477451703,-0.000168276364357,0.999782504433,-0.00579444242359,0.000424033447555,-0.000129795164708,0.362098705549,-0.171415828517,9.59885645521
8654083,-0.00951062804221,-0.0191656213714,-0.000182318834196,0.999771070631,-0.00347666545415,-0.00357679048463,-7.78770988248e-05,0.368572768251,-0.182815832559,9.60799304183
8654164,-0.00984155532614,-0.0200390958068,-0.000197265040611,0.999750738692,-0.00208599927249,-0.00725435502832,-4.67262592949e-05,0.385385894837,-0.189176994653,9.60772890981
8654242,-0.00948748091567,-0.0210036446157,-0.000199324625614,0.999734362162,-0.00125159956349,-0.0111636540004,-2.80357555769e-05,0.403614056434,-0.182219784438,9.59966956513
8654323,-0.00920314795622,-0.021934704841,-0.000201925473894,0.999717024971,0.000951800507751,-0.0143606135065,-1.68214533462e-05,0.421733558372,-0.176848357479,9.60441076495
8654402,-0.00880910485776,-0.0231863886984,-0.000204314191212,0.999692327322,0.0022738405505,-0.0162787892102,-1.00928720077e-05,0.445294528334,-0.16907651815,9.59289027489
8654482,-0.00859281155766,-0.0241483566145,-0.00020757047827,0.999671434711,0.00306706457615,-0.0174296946325,-6.05572320462e-06,0.463022412801,-0.164652834718,9.57688001454
8654562,-0.00759048856344,-0.0251751943407,-0.000191158123576,0.999654218984,0.00354299899154,-0.0181202378858,-3.63343392277e-06,0.482038849292,-0.145239213038,9.56320371551
8654642,-0.00722940345553,-0.0259734887314,-0.000187841114488,0.999636473086,0.00382855964077,-0.0176831837149,-2.18006035366e-06,0.497518854009,-0.13837944335,9.56649010406
8654722,-0.00628695000077,-0.0263974042372,-0.000166020298549,0.999631744067,0.00229713578446,-0.0169952611509,-1.3080362122e-06,0.506806856839,-0.120616632074,9.58857323114
8654802,-0.00576419888497,-0.0271225835664,-0.000156400104359,0.999615483579,0.00308104171653,-0.0153054374281,-7.84821727318e-07,0.520041103849,-0.110437785641,9.57548688912
8654882,-0.0052567640636,-0.0275173933138,-0.000144709243796,0.999607492247,0.00397707533723,-0.0134401630715,-4.70893036391e-07,0.52774223189,-0.100739175291,9.57769073089
8654964,-0.00505753102115,-0.0276952323262,-0.000140125040882,0.999603609363,0.00408900544818,-0.011895308396,-2.82535821835e-07,0.530686967552,-0.0968353704089,9.56919680914
8655042,-0.00475060250149,-0.0274080867993,-0.000130255330495,0.999613030921,0.00245340326891,-0.00926563534493,-1.69521493101e-07,0.526228884633,-0.0911412051555,9.58852131302
8655122,-0.00480008839636,-0.0274475978738,-0.000131802073464,0.999611710191,0.00147204196135,-0.00555938120696,-1.0171289586e-07,0.526666497039,-0.0920342689918,9.58263834323
8655203,-0.00494493866454,-0.0266257906915,-0.000131711209388,0.999633231492,-0.000819535069041,-0.00333562872417,-6.10277375163e-08,0.510409073028,-0.0947248887876,9.57408073787
8655282,-0.00481873395492,-0.0256792293572,-0.000123783632617,0.999658612557,-0.000491721041424,-0.0020013772345,-3.66166425098e-08,0.492035492645,-0.0922691178429,9.57038269565
8655362,-0.00450445861918,-0.0249812308076,-0.000112563192147,0.999677765727,-0.0019977928707,-0.0012008263407,-2.19699855059e-08,0.478617142755,-0.0862466721217,9.57007923165
8655442,-0.00414864820861,-0.0235996328732,-9.79346939454e-05,0.999712877008,-0.00375281609119,-0.000720495804422,-1.31819913035e-08,0.45260962037,-0.0795207425309,9.58091048088
8655522,-0.00456497969462,-0.0227484877651,-0.000103874348536,0.999730792001,-0.00523152008495,-0.000432297482653,-7.90919478211e-09,0.436047426275,-0.0874561930771,9.57615648262
8655602,-0.00487555295372,-0.0220288665249,-0.000107430252607,0.999745440841,-0.00654443254267,-0.00196213873544,-4.74551686926e-09,0.422279387161,-0.0934145642349,9.57713480632
8655682,-0.0058867503678,-0.0217598408983,-0.000128127310194,0.999745887252,-0.00818356014022,-0.00373142361004,-2.84731012156e-09,0.417131025851,-0.112791317887,9.57724296021
8655761,-0.00602116129465,-0.0220320741911,-0.000132693288877,0.99973912383,-0.00916703669875,-0.00564437465772,-1.70838607294e-09,0.42218229471,-0.115319403769,9.57323770972
8655842,-0.00678339627154,-0.0217235231239,-0.000147397442787,0.999740992634,-0.00890574251095,-0.00806921547071,-1.02503164376e-09,0.417312190547,-0.130243784595,9.59717077769
8655922,-0.00757500501393,-0.0216258192745,-0.000163858714846,0.999737423722,-0.0083232759368,-0.0108011901429,-6.15018986257e-10,0.416066069211,-0.145662757574,9.61153061847
8656002,-0.00848088726848,-0.0208748652564,-0.000177082338532,0.999746109367,-0.00669672580793,-0.0145688252535,-3.69011391754e-10,0.400953186448,-0.162815006839,9.595725666
8656082,-0.00880327879628,-0.0209643033456,-0.000184602336116,0.999741449671,-0.00572079573061,-0.0176807864428,-2.21406835052e-10,0.40218052393,-0.16879679341,9.58384849286
8656162,-0.00967426749468,-0.0209709896266,-0.000202933094278,0.999733256904,-0.00556092774567,-0.0203993432793,-0.00170276037869,0.402438086086,-0.185553974484,9.58653841579
8656242,-0.0100671905392,-0.0206899771898,-0.000208345105843,0.999735231504,-0.0033365566474,-0.02458461775,-0.00315010653453,0.398283060392,-0.1936929218,9.61640394913
8656323,-0.0105571902052,-0.0212433306832,-0.000224333016979,0.999718568554,-0.00200193398844,-0.0279471625553,-0.00359282416656,0.408958154106,-0.203125273343,9.61636675669
8656402,-0.00990642738649,-0.0207056276905,-0.000205172857367,0.999736514079,-0.00120116039307,-0.0320931397458,-0.00215569449994,0.399561479378,-0.191067591985,9.64004703765
8656480,-0.0103774358222,-0.0201205885992,-0.000208853650113,0.99974368071,0.000982064010009,-0.0371348664289,-0.00129341669996,0.388656230888,-0.200352974624,9.64970622308
8656561,-0.0100229972785,-0.0198973850412,-0.000199480954055,0.999751766091,0.0039947588977,-0.0418626626846,-0.000776050019978,0.384267863289,-0.193474355575,9.64807970919
8656644,-0.0102957368779,-0.0176632438158,-0.000181894132901,0.99979096542,0.00835651619909,-0.0498076211756,-0.000465630011987,0.341412254839,-0.198923990787,9.65739886799
8656722,-0.0100789308559,-0.0158090494433,-0.000159366330222,0.999824216406,0.0113992606414,-0.0579801167618,-0.000279378007192,0.306361503294,-0.195250587099,9.68334107739
8656802,-0.0100504260019,-0.0128966420572,-0.000129634076743,0.999866315442,0.0145019774911,-0.0701203451584,-0.00187038705016,0.250854548461,-0.195440746546,9.72069363813
8656882,-0.00998021121885,-0.0101116634083,-0.000100926723664,0.999899064636,0.0159379175395,-0.08719535361,-0.0011222322301,0.197199661449,-0.194597161551,9.7471753174
8656963,-0.00973458175893,-0.00717004441625,-6.98024855128e-05,0.999926909083,0.01722517163,-0.103400019541,-0.000673339338059,0.139628191645,-0.189542027399,9.73385506471
8657042,-0.00875384140914,-0.004529760968,-3.96547354116e-05,0.999951423797,0.0179975240843,-0.125042140821,-0.000404003602835,0.0878470578093,-0.169749535287,9.69449887134
8657122,-0.00824995789118,-0.00234147245247,-1.93177595084e-05,0.999963226988,0.017609555434,-0.144412764511,-0.000242402161701,0.0452862095391,-0.159549981182,9.66873037383
8657202,-0.00733917393123,-0.00163045723611,-1.19665474346e-05,0.999971738597,0.0165253941209,-0.171785670999,-0.000145441297021,0.0314812887117,-0.141698660584,9.65279043499
8657282,-0.00660276201645,-0.00130154422,-8.59398135383e-06,0.999977354465,0.015874897333,-0.203534257104,-8.72647782124e-05,0.0251136975434,-0.127396565735,9.64657835401
8657362,-0.00619432595375,-0.00239844886256,-1.48571018076e-05,0.999977938531,0.0163359793832,-0.22896875969,-5.23588669275e-05,0.0461928401081,-0.119294149158,9.62872531563
8657442,-0.00479885110643,-0.00334533405746,-1.60540347338e-05,0.999982889609,0.0178896987977,-0.257425853146,-3.14153201565e-05,0.0645864096313,-0.0926454641042,9.65248999651
8657522,-0.00332303324319,-0.00506608943253,-1.68350925922e-05,0.999981645784,0.0192476205079,-0.280885460142,-1.88491920939e-05,0.0978886267846,-0.0642064044391,9.66052388072
8657600,-0.00280032988606,-0.00726755591497,-2.03521713143e-05,0.999969669725,0.0196366834725,-0.307731926183,-1.13095152563e-05,0.140375452682,-0.0540861534545,9.65672508527
8657682,-0.00244952066624,-0.0100402817527,-2.45951911649e-05,0.999946594567,0.0190187411283,-0.337036197713,-6.7857091538e-06,0.193879707644,-0.0472957423656,9.65348812733
8657762,-0.00198902536335,-0.0128206822076,-2.55028085793e-05,0.999915833076,0.0182222856604,-0.361004111553,-0.00170683167134,0.247769495729,-0.038433092392,9.66040449871
8657842,-0.00216184327245,-0.0152245177782,-3.29169133416e-05,0.999881762714,0.0151902720109,-0.387304181578,-0.00272685924865,0.295665679371,-0.0419740485505,9.70669227076
8657922,-0.0024925523022,-0.0179552793065,-4.47618278986e-05,0.999835683062,0.0125196836982,-0.409469574515,-0.00163611554919,0.34882424649,-0.0484081852338,9.70884697623
8658002,-0.00211696003523,-0.020667018475,-4.37606969353e-05,0.999784172165,0.0134714710794,-0.435965202183,-0.000981669329515,0.40059126054,-0.0410159194411,9.68524010224
8658082,-0.00284843062171,-0.0255425896801,-7.27803358345e-05,0.999669674072,0.014893923631,-0.463781900504,-0.00271745190502,0.493661291969,-0.0550159127486,9.65383772589
8658162,-0.00326703899684,-0.0288114261223,-9.41676481907e-05,0.999579521256,0.0144703249776,-0.486005890296,-0.00461030157325,0.555488814976,-0.0629370684011,9.62781369511
8658242,-0.00383319442284,-0.0317052599878,-0.000121594450595,0.999489904063,0.0133647856627,-0.504448564909,-0.00532032131272,0.611978362228,-0.073914686109,9.63614129324
8658323,-0.00313619157618,-0.0335204818082,-0.000105186282298,0.999433104584,0.0131271521351,-0.518068310045,-0.0057463331564,0.648745132571,-0.0606293829545,9.66029146539
8658402,-0.00285259842199,-0.0353178821389,-0.000100811038877,0.999372052701,0.0100047415884,-0.537308098725,-0.00642763032408,0.685409824904,-0.0552918228879,9.68507663583
8658482,-0.00266211020023,-0.0364867344944,-9.71967728629e-05,0.999330586907,0.00259732446134,-0.55098042224,-0.0021538179486,0.705014438644,-0.0513710263499,9.64176863775
8658562,-0.00200432217065,-0.0376081294237,-7.54323229758e-05,0.999290551143,-0.00269850593782,-0.557481056103,0.00637013033716,0.732100097512,-0.0389629014545,9.71250958597
8658643,-0.00149452321412,-0.0366600796589,-5.48262560093e-05,0.999326674293,-0.00502462405439,-0.561807126483,0.0212753707222,0.703579921789,-0.028644984525,9.57658613122
8658722,-0.000629294362255,-0.0365223268584,-2.29986427888e-05,0.999332638865,-0.0055689148014,-0.56440276871,0.0276643745845,0.692692740671,-0.0119197470627,9.46414685695
8658802,-0.00124644681334,-0.0392414701761,-4.89501470796e-05,0.999228978259,-0.00844962961839,-0.566385844108,0.0204298353039,0.738832868524,-0.0234324195267,9.39213430924
8658882,0.000309521338962,-0.0463935912479,1.437528594e-05,0.99892318958,-0.016137719369,-0.577792250822,0.00672393038331,0.873058919112,0.00581242206329,9.37885430136
8658963,0.000526899726177,-0.0523371238918,2.76142661784e-05,0.998629334176,-0.0220276434038,-0.588892995465,-0.00660789330656,0.99118351553,0.0099517977204,9.43026249781
8659042,0.000683976178076,-0.0613348746465,4.20307366442e-05,0.998117008953,-0.0285414282549,-0.601513103112,-0.0273776893643,1.16237532294,0.0129142634467,9.42208192862
8659122,0.000170069622672,-0.0709755755162,1.21013083728e-05,0.997478039162,-0.0324496991656,-0.614619138498,-0.0436707775522,1.34194428068,0.00319957491372,9.3819788227
8659202,-0.00141469809891,-0.0791108295249,-0.000112269926938,0.996864816651,-0.0296863809744,-0.628016730529,-0.0538723205263,1.50858301616,-0.0268106749736,9.44482647941
8659287,-0.000869199756398,-0.0844948611076,-7.37065216195e-05,0.996423533195,-0.0293054602441,-0.631798385133,-0.0506280649587,1.62173436658,-0.0165652453162,9.49354840107
8659362,-0.000382432928696,-0.0891843926118,-3.42435068332e-05,0.996015058464,-0.0316310481747,-0.63236461765,-0.0414447805732,1.71715849593,-0.00730552536356,9.51176822644
8659442,-0.00093025601635,-0.091827626428,-8.57856911368e-05,0.995774479633,-0.039411751855,-0.628873146607,-0.0197585876064,1.79476368764,-0.018030264681,9.64839570881
8659521,-0.00112397711467,-0.0954394408957,-0.000107763732201,0.995434597643,-0.0483370746778,-0.622947053428,0.000489859218568,1.89112619721,-0.0220709066113,9.77155246679
8659602,-0.000206115471605,-0.101590116198,-2.10481913341e-05,0.994826319196,-0.0605033093549,-0.607046385738,0.0194499682969,2.06386538263,-0.00414457765822,9.99987252866
8659682,-0.00143744428551,-0.106134330862,-0.000153428945866,0.99435075,-0.0678030501611,-0.579201312481,0.0350829343586,2.20581612045,-0.0295412253547,10.2151549601
8659762,-0.00215138415155,-0.110641425808,-0.000239503231012,0.993858032658,-0.0713315145219,-0.550149256745,0.0440370239341,2.3187593024,-0.0445397938066,10.2851876379
8659842,-0.00350731429897,-0.114246074305,-0.000403340297947,0.993446209197,-0.0670632422165,-0.505048169308,0.042598436696,2.39107419472,-0.0724531279929,10.2582542368
8659922,-0.00389948170141,-0.121049809219,-0.000475532068704,0.992638661145,-0.0610967583415,-0.465216815002,0.0379040738,2.51586598656,-0.0798637420301,10.1616490203
8660002,-0.00521901275456,-0.124371553981,-0.000654185125722,0.992221774861,-0.0545370375863,-0.419182119222,0.0295534852634,2.57374222987,-0.106336765726,10.1046435711
8660082,-0.00654176154816,-0.126660206492,-0.00083532676625,0.991924240896,-0.0518782753176,-0.374533699296,0.0198605414653,2.62163608499,-0.13323390758,10.0972553602
8660165,-0.00813463463029,-0.129493271829,-0.00106236126904,0.991546363847,-0.0507087080178,-0.341359296418,0.0119163248792,2.68197585998,-0.165652763982,10.0916253328
8660242,-0.00892797979972,-0.131487963311,-0.00118425228416,0.991276855489,-0.0525611080067,-0.308683952848,0.00714979492753,2.74906492639,-0.18342813666,10.178508719
8660322,-0.0100360968326,-0.134980547286,-0.00136726146516,0.990796477189,-0.0566523784303,-0.279287875292,0.00428987695652,2.82307660964,-0.206064368569,10.1667135664
8660402,-0.0111438976293,-0.136840695943,-0.00153951920792,0.990529185516,-0.0599585208074,-0.233554684702,0.00257392617391,2.83875319967,-0.226828712694,10.0755999965
8660482,-0.0130955495268,-0.139314451853,-0.00184253001376,0.99015988364,-0.0517256447585,-0.177167846168,-0.00526668527905,2.84839857386,-0.262511075273,9.91846002354
8660562,-0.0152243903694,-0.141017295103,-0.00216883427648,0.989887688871,-0.0412519483302,-0.130139351143,-0.0129508825811,2.84676377322,-0.301158744773,9.78419287203
8660642,-0.0166111498841,-0.143123379186,-0.00240252014137,0.989562527548,-0.0324135901044,-0.0797863709315,-0.0188384711466,2.8728373716,-0.326502127967,9.71823721126
8660722,-0.0175457238034,-0.143356471412,-0.00254195226466,0.98951230824,-0.0283876453534,-0.0423378517599,-0.0206682640402,2.87938356432,-0.345060040208,9.72271712534
8660802,-0.0173945742197,-0.1448880235,-0.00254754492649,0.989291867676,-0.0272491486871,-0.00709803841307,-0.0204890695919,2.91946372502,-0.343026678422,9.74719230889
8660882,-0.0177649095643,-0.144937086569,-0.00260270050388,0.989277956327,-0.0210320798883,0.0366074228525,-0.0216586231073,2.89538836807,-0.347313325168,9.66299689046
8660963,-0.0194123102323,-0.145678642937,-0.00285901546042,0.989137362167,-0.012619247933,0.0773041617016,-0.022786045278,2.87471822958,-0.374785010482,9.54041416943
8661042,-0.0207989370243,-0.147112921244,-0.00309414931775,0.98889616182,-0.0075715487598,0.123858088207,-0.022185428396,2.88027265894,-0.398211206484,9.45800599067
8661122,-0.0199833576158,-0.146884000534,-0.00296804009076,0.988947393213,-0.00284016901003,0.157324414909,-0.0209736781439,2.86995836709,-0.381860563002,9.44064338566
8661203,-0.0200250553419,-0.145157892185,-0.00293852659142,0.989201470155,0.00127572902421,0.18889784259,-0.0202466279927,2.85371414501,-0.385218286043,9.50636143545
8661282,-0.0213186027297,-0.144774121541,-0.00311998382412,0.989230123182,0.00374526784476,0.214227250121,-0.0202360879634,2.84181283027,-0.409498995308,9.49216214814
8661362,-0.0209949622424,-0.143287731734,-0.00304038538136,0.989453684389,0.0073554414444,0.245175426913,-0.0189526937614,2.76763439494,-0.397012942106,9.34693366095
8661442,-0.0184881725843,-0.142927005958,-0.0026703457472,0.989556935045,0.0137784462188,0.284177455939,-0.01520282681,2.72360617407,-0.344989159307,9.22532006474
8661522,-0.0170090667715,-0.141764509312,-0.0024362504734,0.989751271902,0.0180579391449,0.314815404399,-0.0108244563319,2.70221706504,-0.317605612283,9.23399418362
8661602,-0.0164228442361,-0.138636199556,-0.00229932367119,0.9902045281,0.0146659740401,0.341711974704,-0.00649467379911,2.66711752418,-0.309794610046,9.33305136002
8661682,-0.0168493015494,-0.136426740275,-0.00232073262857,0.990504144249,0.00879958442406,0.362532507563,-0.0013426639107,2.63648099302,-0.319473218664,9.38386653989
8661762,-0.0159206604716,-0.132350847699,-0.00212609299839,0.991072785123,0.00868527114613,0.388221219184,0.0034513022682,2.53406259606,-0.299423005906,9.31379917808
8661842,-0.0123572142189,-0.131278876109,-0.00163653286062,0.991267107143,0.0154277241628,0.415979457939,0.00760475215993,2.5013419778,-0.231368559403,9.27511064333
8661922,-0.0106394891969,-0.130147374955,-0.00139666177769,0.991436589701,0.0211759562186,0.436039921684,0.010096822095,2.48721627066,-0.199873277976,9.30816126148
8662002,-0.0113212205446,-0.124940672492,-0.00142574630483,0.992098596698,0.0271790358209,0.457015691221,0.00605809325698,2.42630783003,-0.21641029369,9.4778686563
8662082,-0.0130548022399,-0.119562587916,-0.00157228135247,0.992739587022,0.0346120941354,0.47726357405,0.00108071558541,2.34116047194,-0.251950460882,9.57514411004
8662162,-0.0140829136728,-0.114095016683,-0.00161751650093,0.993368704133,0.0505655607836,0.506865596267,-0.00914244206238,2.2139364443,-0.269683258707,9.50685611446
8662242,-0.0112461202447,-0.10760331457,-0.00121726570722,0.994129553799,0.0631174712027,0.538674581626,-0.0186818571427,2.10408320447,-0.21735543374,9.60331049241
8662324,-0.00923913812304,-0.103049377907,-0.000957224986111,0.994632870842,0.0680944770854,0.562868253579,-0.0261082664368,2.04774806721,-0.181649175771,9.77466827787
8662402,-0.00893401434376,-0.094813449236,-0.000850932540599,0.995454604262,0.0659723998775,0.586323948041,-0.0343953225664,1.91578471679,-0.178900193939,9.96415304924
8662483,-0.0089696857037,-0.0881090546669,-0.000793428596936,0.99607013292,0.0634220833684,0.608485475886,-0.0397932463056,1.7784276062,-0.1796450065,9.97225961885
8662562,-0.00754216219491,-0.0817851066922,-0.00061892773783,0.996621256567,0.0572093027868,0.633276024253,-0.0379237198116,1.63663713867,-0.149924953119,9.90362156965
8662644,-0.00314553635867,-0.0747704287153,-0.000235854488851,0.99719578467,0.0368797220409,0.644744832781,-0.028288202686,1.50918548877,-0.0631399132776,10.0070485204
8662722,-0.00102711259872,-0.0724017101602,-7.45604282582e-05,0.997375020665,0.0174452425484,0.650774737775,-0.0195270619804,1.46288143975,-0.0206456960134,10.0228965988
8662802,-0.00180954075683,-0.0685167966376,-0.000124276194614,0.997648314135,0.00450748466859,0.661629411816,-0.0117162371882,1.35465383455,-0.0356111737116,9.81573019562
8662882,-0.001907937017,-0.0631954708462,-0.000120814687549,0.997999337497,0.00100173055531,0.674527567163,-0.00702974231293,1.22004600312,-0.0366895948519,9.59494402679
8662964,0.00055135472621,-0.0550847459887,3.04174229858e-05,0.998481530046,0.000601038333185,0.686523360986,0.000464745288324,1.05692076716,0.010547385667,9.5498606861
8663042,0.00261607699107,-0.0489615834526,0.000128241517198,0.998797228191,-0.00261920743032,0.677970305005,0.00198160741884,0.945159255948,0.050381741947,9.61714222709
8663122,0.00243666106783,-0.0462452649888,0.000112805061124,0.998927137195,-0.00157152445819,0.669007260864,-0.000513795794543,0.884566693706,0.0465096164573,9.53301266535
8663201,0.00263965093385,-0.041993658728,0.000110946856775,0.999114384122,0.00757088655432,0.671717545547,-0.00541655821427,0.78811669469,0.0494535848158,9.35875470248
8663285,0.0012287164584,-0.0367366673765,4.51694722592e-05,0.999324224407,0.0147590934077,0.672492336233,-0.0104866659734,0.68762990573,0.022968386241,9.3399123442
8663362,0.000450065166687,-0.0312598579042,1.40758535791e-05,0.999511189796,0.0131123566592,0.65380115788,-0.0241709821655,0.591903647784,0.00851378809228,9.45358425588
8663442,0.000531763672214,-0.027860364227,1.48208847897e-05,0.999611683161,0.0142527649175,0.63747817013,-0.0383412327411,0.518905582225,0.00989667617568,9.30176027033
8663523,-0.000926173038889,-0.025602214892,-2.37198664974e-05,0.999671780253,0.0183425303641,0.631515588033,-0.0451406228407,0.471515440399,-0.0170463302321,9.19941313119
8663602,-0.00117084973066,-0.019073209331,-2.23359404619e-05,0.999817403978,0.0156881088945,0.61474164687,-0.0445376662244,0.357847776203,-0.021959386274,9.37574907256
8663682,-0.00132919152792,-0.0160146948472,-2.1289345746e-05,0.999870872836,0.00643303490649,0.589352439959,-0.0416217518858,0.303054706981,-0.0251466400652,9.45808746112
8663762,-0.00134673330657,-0.0133788255726,-1.80193390862e-05,0.999909592419,-0.00635674053119,0.565179424522,-0.0305070219305,0.249828151337,-0.0251436310118,9.33415029405
8663842,-0.00186517310983,-0.0107269444482,-2.00087943578e-05,0.999940724939,-0.0140306057938,0.552378375506,-0.0110674821134,0.199696285334,-0.0347186322203,9.30647492619
8663922,-0.00119283252987,-0.00777077677576,-9.26952178978e-06,0.999969095569,-0.0237432056889,0.533629804498,0.00357607220703,0.146632829794,-0.0225071204943,9.43400064541
8664002,-0.00279267946607,-0.00453719129058,-1.26711007888e-05,0.999985807237,-0.0389359469781,0.503224609127,0.0170447954754,0.0853460760502,-0.0525297593571,9.40469236356
8664082,-0.00445659979388,-0.00197833217137,-8.81673955748e-06,0.999988112351,-0.0472002116288,0.485832872028,0.0285315499281,0.0368424356692,-0.0829931913076,9.31097178166
8664162,-0.00662964856354,0.00138067162108,9.15357751686e-06,0.999977070448,-0.0444963493128,0.471992309277,0.0358492926612,-0.0257785718016,-0.123776746083,9.33446634781
8664242,-0.00721827390858,0.00251786701732,1.81751849145e-05,0.999970777842,-0.0381914412472,0.447086059229,0.0313004470103,-0.0477888654931,-0.136994131146,9.48862388461
8664322,-0.00821215421252,0.00364200361989,2.99099023262e-05,0.999959646905,-0.0322800461005,0.428311098647,0.0247399290667,-0.0693747475185,-0.156416730153,9.52246046602
8664402,-0.00786207780564,0.00568656242381,4.47103010378e-05,0.999952923263,-0.0193680276603,0.419600262667,0.0165467176859,-0.106507713501,-0.147240735113,9.36295787019
8664482,-0.00911166683235,0.00792213252893,7.21890945442e-05,0.999927103409,-0.00778960604301,0.41181962071,0.00992803061151,-0.146983425708,-0.169029037015,9.27396007734
8664562,-0.00947301310551,0.0108830437756,0.000103105949648,0.999895899957,-0.000842553072647,0.389697943016,-0.0029826729238,-0.206224197271,-0.17946839633,9.47075547511
8664642,-0.0101721110273,0.012584373237,0.000128026405029,0.999869064086,-0.000505531843588,0.365356994801,-0.0154116857211,-0.239613878714,-0.193632877398,9.51557014298
8664722,-0.0108124533359,0.013332386495,0.000144177051622,0.999852647912,-0.002006079352,0.34990104575,-0.0211663331536,-0.250789141437,-0.203328666868,9.40000394492
8664802,-0.0105449004622,0.0146488732099,0.000154496079984,0.999837082588,-0.00375778797997,0.334242125397,-0.0195108408755,-0.272338349364,-0.19597803142,9.28996279786
8664882,-0.0107197996462,0.0153619344726,0.000164705762379,0.999824519472,-0.00821433364845,0.317184352079,-0.0176661653858,-0.287662075781,-0.200665616459,9.35681630176
8664963,-0.0114483267401,0.0145859508168,0.000167013446357,0.999828064199,-0.0189763722173,0.297158816674,-0.015707979969,-0.274590236191,-0.215449175784,9.40674463091
8665042,-0.0123070776787,0.0140871961192,0.000173402560102,0.999825013028,-0.0241565251743,0.287271945739,-0.00516788736679,-0.261240468619,-0.228150034035,9.26599505003
8665122,-0.012712078988,0.0153627770416,0.000195331675912,0.999801155218,-0.0247104765796,0.27921137287,0.00583875887063,-0.28243986833,-0.233615767491,9.18537602416
8665202,-0.0121119310286,0.0161283603408,0.000195385339438,0.999796548776,-0.0246171573614,0.261604327305,0.0128684366745,-0.302820953468,-0.227318400924,9.38073433764
8665282,-0.011873588773,0.0148309937398,0.00017612891239,0.999819497956,-0.0245611658305,0.245080439106,0.015383483111,-0.283206722472,-0.226652443143,9.54128437578
8665362,-0.011668989524,0.0136778669466,0.000159632690813,0.999838349513,-0.01814221999,0.23346334594,0.0173182010344,-0.258270074743,-0.220267364323,9.43530435838
8665442,-0.0113822587045,0.0146690765391,0.000166996013838,0.999827602386,-0.00790550156375,0.223087569549,0.0163505814811,-0.273475027023,-0.212126754043,9.31545260892
8665522,-0.0108598817504,0.0150008820244,0.000162935750003,0.999828490272,-0.00133778044656,0.210902442854,0.0127901793189,-0.281400897562,-0.203651085385,9.3735467094
8665602,-0.0113823769034,0.0141891608611,0.000161533106091,0.999834527868,0.0021771621623,0.193374805362,0.00554565728403,-0.272988310754,-0.218916398301,9.61358625196
8665682,-0.0120227094022,0.0120255474683,0.000144600571939,0.999855399424,0.00471181778908,0.182432532805,-7.81261212782e-05,-0.232506574099,-0.232385149039,9.66160249092
8665762,-0.0119352223894,0.0101331396741,0.000120956102294,0.999877420145,0.0100638217183,0.179272689763,-0.003026706103,-0.192415801149,-0.226580029853,9.48953871501
8665842,-0.0108111513811,0.0115566870734,0.000124956742329,0.999874765346,0.0128493340144,0.176099713753,-0.00437016403057,-0.219597252906,-0.205379866056,9.49619430567
8665922,-0.00940371291946,0.011866818183,0.000111604945672,0.999885361606,0.0119665010232,0.171216097717,-0.00517623878712,-0.227765838316,-0.180449339312,9.59260384414
8666002,-0.0104749302008,0.0100930895617,0.000105735596394,0.999894191502,0.00888266085979,0.165731787727,-0.00310574327227,-0.193641502501,-0.200925207835,9.5886791644
8666082,-0.0109466421796,0.00852337031173,9.33112659327e-05,0.999903752606,0.00788373688465,0.165421032163,-0.00186344596336,-0.161195892712,-0.206985804633,9.45224906358
8666162,-0.0105768782664,0.00806628153634,8.53236268959e-05,0.99991152482,0.0102642129298,0.168640099316,0.000584692667831,-0.149150551984,-0.195538692252,9.24182237394
8666242,-0.00800884705449,0.00911201045685,7.29820688987e-05,0.999926409446,0.0121181886183,0.162909118502,0.000350815600699,-0.171372027968,-0.150602618428,9.40095519804
8666324,-0.00768656728344,0.00763633503304,5.87006488706e-05,0.999941298089,0.0140819541544,0.156490699583,0.000210489360419,-0.146397686996,-0.147343570568,9.58334441277
8666402,-0.00838707241214,0.00599897374528,5.03165024287e-05,0.999946831986,0.0178143538448,0.155619478662,0.000126293616252,-0.113935410293,-0.159274511482,9.49405920382
8666485,-0.00869213058386,0.00447961962498,3.89393005108e-05,0.999952188036,0.0217565539049,0.158502266601,7.57761697509e-05,-0.0836841368009,-0.162362933207,9.33849508772
8666562,-0.00829586766417,0.00668986243327,5.55013654156e-05,0.999943209007,0.0258246341868,0.159380559241,4.54657018505e-05,-0.124909573877,-0.154878599768,9.33350265932
8666643,-0.00753618104089,0.00763446500775,5.75380213506e-05,0.999942457149,0.0286911724174,0.156502014334,2.72794211103e-05,-0.145574693301,-0.143684235056,9.5318595619
8666722,-0.00744085966475,0.00771042584838,5.73754907248e-05,0.999942588176,0.0299854052943,0.156051957574,0.00171912789851,-0.148396958315,-0.143192540545,9.6209461827
8666802,-0.00808279763866,0.00723875756637,5.85128571612e-05,0.999941130941,0.0282078046517,0.162592964501,0.00741682766104,-0.13764046869,-0.15367143131,9.50488867764
8666882,-0.00813524186752,0.00749465961899,6.09745991273e-05,0.999938820228,0.0254384840202,0.169071709026,0.0116868276415,-0.140763381556,-0.152776160788,9.38856724223
8666964,-0.00712921075898,0.00916587799709,6.53498821757e-05,0.999932576109,0.0233512015799,0.172107575618,0.0151002077527,-0.173282910525,-0.134761326355,9.45021605212
8667042,-0.00685908522108,0.00918539874019,6.30075731933e-05,0.999934286556,0.018693311624,0.174780475697,0.0162968556965,-0.176274636452,-0.131613871009,9.59302905144
8667122,-0.00725248011547,0.00886525351678,6.42992928706e-05,0.999934400187,0.0129187472203,0.180215426297,0.0161634643398,-0.170887067027,-0.139781044773,9.63562122115
8667202,-0.00682463739957,0.00789685224197,5.38960889185e-05,0.999945529089,0.00775124833216,0.189861747579,0.0131035990956,-0.149698012922,-0.129358458407,9.47634415481
8667282,-0.00593630413392,0.00748605826075,4.44415470197e-05,0.999954357583,0.0046507489993,0.196075230409,0.00956491970319,-0.13985762245,-0.11089447812,9.33959764645
8667362,-0.0048356440339,0.0101114057769,4.88982305694e-05,0.999937184842,0.00960149038297,0.202357460477,0.00573895182192,-0.190217127181,-0.0909575438058,9.40407488304
8667442,-0.0048316867396,0.0107110882801,5.17561964589e-05,0.999930959973,0.0134233153361,0.209532319009,-0.00166490964439,-0.204870519229,-0.0924029125139,9.56127420716
8667523,-0.00550970721934,0.00995867979717,5.48729640785e-05,0.999935230308,0.015716410308,0.214262924189,-0.00866136689295,-0.19067821852,-0.105480562206,9.57131790321
8667602,-0.0051929701312,0.0100316222795,5.20972388554e-05,0.999936196415,0.0196464076599,0.221358187912,-0.0132849313036,-0.189345443075,-0.0980042613956,9.43536796238
8667682,-0.00569340717928,0.0109774160932,6.25036788856e-05,0.999923535849,0.0254099265627,0.229020866638,-0.0143563097041,-0.204347508765,-0.105968329542,9.30519570419
8667762,-0.00581646707869,0.0143992540291,8.37628884608e-05,0.999879404317,0.0322735583961,0.239152444672,-0.0120193063141,-0.268894226694,-0.108591988936,9.33339490298
8667842,-0.00691281578392,0.013918377834,9.62268029089e-05,0.999879233946,0.0338375971274,0.24438001137,-0.00721158378848,-0.263329526739,-0.13075631885,9.45589871547
8667922,-0.00766010983558,0.0137481575426,0.000105325442189,0.999876142224,0.0326475700588,0.24794224145,-7.00496584675e-05,-0.261187807596,-0.145491437794,9.49492449906
8668002,-0.00719631606057,0.0141528565932,0.000101861269662,0.999873941709,0.0289537233875,0.25348509999,0.0131543621102,-0.267803641589,-0.136136576544,9.45704840671
8668082,-0.00659132880862,0.0163930483673,0.000108068842251,0.999843893151,0.0258860352617,0.258087885298,0.0236431495402,-0.307446746721,-0.123580474979,9.37255234847
8668162,-0.00626929754936,0.0197645840143,0.000123936704793,0.99978499777,0.0236197323248,0.264680767036,0.032490562367,-0.369779256529,-0.11724391487,9.34819093179
8668242,-0.00622485136283,0.0211101518155,0.000131439396076,0.999757768382,0.0192801201324,0.270764946386,0.0365219398787,-0.399517317101,-0.117751541793,9.45543894628
8668323,-0.00610186662352,0.0222392384506,0.000135736966465,0.999734047171,0.0136965223868,0.274841144058,0.0372380061398,-0.425261018923,-0.116619596951,9.55306715805
8668402,-0.00466554528785,0.0232829013826,0.000108658069808,0.999718023937,0.00523808300183,0.278138242783,0.0321336750975,-0.445016803004,-0.0891253714518,9.54843716129
8668482,-0.0036226402126,0.0251378918955,9.10949229619e-05,0.999677425258,-0.00111405081352,0.280967882142,0.0265169361034,-0.477699827896,-0.0687981134961,9.4922684662
8668562,-0.00194860788391,0.0289000194659,5.63384450341e-05,0.999580406285,-0.0053510211642,0.287348256433,0.0180386119693,-0.545193676035,-0.0367298849434,9.42049944276
8668643,-0.000819941592151,0.0310323431613,2.54569779975e-05,0.999518044222,-0.00746751331314,0.295433381622,0.0108231671816,-0.580901581597,-0.0153341663176,9.34607398695
8668722,-0.00120907314981,0.0313752647489,3.79537035084e-05,0.999506943179,-0.0087374086025,0.304967047412,0.00138561957142,-0.587242854476,-0.0226080290874,9.34451434334
8668802,-0.00123671064682,0.0324196016896,4.01147837745e-05,0.999473580623,-0.00992503583758,0.308133106517,-0.00299983881031,-0.613553113809,-0.0233810442591,9.44772632939
8668882,-0.00042386919679,0.0344505688189,1.46112094196e-05,0.999406312983,-0.0106376121786,0.307904291673,-0.00350266353203,-0.65447838684,-0.00804312240507,9.48188078177
8668963,2.34256946791e-05,0.0373987578982,-8.76705208037e-07,0.999300421474,-0.0102137778603,0.305638552459,-0.00210159811922,-0.705609189086,0.000441370209305,9.41378799176
8669042,-0.000255262393332,0.040395711954,1.03199299893e-05,0.999183727445,-0.00868240708498,0.304704798992,-0.00126095887153,-0.754962443383,-0.00476300136075,9.32169640224
8669122,-0.00151771596621,0.0424433963431,6.4475195086e-05,0.999097718188,-0.00520944425099,0.307124377342,0.00179756504585,-0.791038740444,-0.0282363384141,9.29349592728
8669202,-0.00294384970762,0.0452189865253,0.000133254785973,0.998972752006,-0.00312566655059,0.309427504475,0.00533543964213,-0.846682182255,-0.0550096094449,9.33307880148
8669282,-0.00370182686466,0.0467079525179,0.000173094861134,0.998901713727,-0.00187539993035,0.309958000632,0.0074581643999,-0.880547087673,-0.0696370510674,9.3948963324
8669362,-0.00307237824776,0.0496861887643,0.000152844270878,0.998760141263,-0.00112523995821,0.307296467896,0.00702903900871,-0.945158761637,-0.0583022220955,9.47580074134
8669442,-0.0027871838519,0.052030188067,0.000145214958188,0.998641612416,-0.00237790422078,0.303996788008,0.00421742340523,-0.99086895083,-0.0529378457085,9.48316311814
8669522,-0.00198973481826,0.0535611980726,0.000106725990709,0.998562580726,-0.00738640339293,0.301591290014,-0.000449376387098,-1.01254898036,-0.0375087914095,9.41144493143
8669602,-0.00321766836555,0.0557279905916,0.000179594218017,0.998440787138,-0.012945643265,0.303127821648,-0.00580359663127,-1.04399235086,-0.0600942409101,9.32292418786
8669682,-0.00456871163768,0.0572240279434,0.000261871942077,0.998350874654,-0.0162811871882,0.304901120751,-0.00901612877777,-1.06381605383,-0.0846588382472,9.24898218728
8669762,-0.00619147969383,0.0586943444474,0.0003640394594,0.998256734004,-0.0182825135422,0.303410959845,-0.0100922679427,-1.0912725864,-0.114720487275,9.24723377648
8669842,-0.0059103898835,0.0597782539972,0.000353951982279,0.998194120579,-0.0194833093546,0.29953703287,-0.0103122613803,-1.11421085042,-0.109773140753,9.2686902256
8669923,-0.0051583678353,0.0602256694328,0.000311235277876,0.998171409686,-0.0189267166576,0.289550255579,-0.00831580713547,-1.13084685083,-0.096509665702,9.33663073326
8670002,-0.00429675575809,0.0626442151928,0.000269699106674,0.998026636646,-0.0181670709779,0.275044387976,-0.00498948428128,-1.18392408096,-0.0808901353587,9.39343618898
8670082,-0.00352679413491,0.0639985399842,0.000226174750771,0.99794373461,-0.019414043816,0.263786727045,-0.00299369056877,-1.21146085604,-0.0664905936664,9.40621106764
8670162,-0.00373758641139,0.0662557892475,0.000248183824057,0.99779564002,-0.023993438072,0.259160580793,-0.00392466464857,-1.24737595454,-0.0700612971178,9.35090849117
8670242,-0.00338944504559,0.0671714687632,0.000228190702638,0.997735663077,-0.02801814481,0.258087653288,-0.00490893915792,-1.25144734153,-0.062866332714,9.25188639963
8670322,-0.0033377848606,0.0696514746633,0.000233048931008,0.997565775755,-0.0312843489757,0.259572347093,-0.00549950386352,-1.29794348426,-0.061901236396,9.24921572406
8670402,-0.00397616765961,0.0711923350586,0.000283795020463,0.997454641064,-0.0328183814137,0.258334713068,-0.00755660293273,-1.33182667405,-0.074011447404,9.28208982262
8670482,-0.00400864513064,0.0734738653115,0.000295331282912,0.997289042685,-0.033313110815,0.255889372407,-0.0083651723128,-1.3741832432,-0.0745738093604,9.27523864333
8670562,-0.00364555923695,0.0758062224872,0.000277155428072,0.997115865742,-0.0314814981485,0.249739577335,-0.00501910338768,-1.42641224328,-0.0682074618858,9.32667341427
8670643,-0.0040307565865,0.0782382535952,0.000316331604003,0.996926491076,-0.0291054603642,0.243495559923,-0.00301146203261,-1.47714267678,-0.0756404012037,9.35274587351
8670722,-0.005743714483,0.0784484914306,0.000451986206834,0.996901519532,-0.0264027675092,0.234640868738,-0.00180687721956,-1.49225804625,-0.10859116455,9.42225888641
8670802,-0.00747167252297,0.0800288596212,0.000599890459085,0.996764363262,-0.0247811517962,0.225071153412,-0.00108412633174,-1.52048088122,-0.141050891357,9.40674527447
8670882,-0.00762351861456,0.0809467919222,0.000619149330991,0.996689076641,-0.0242338724299,0.218903634155,-0.000650475799043,-1.53142907805,-0.143288475488,9.36487596473
8670963,-0.00769145545378,0.0827588353453,0.000638746137504,0.996539717567,-0.0251825749945,0.21477743254,0.00131247476642,-1.56170059258,-0.144152185635,9.33664191673
8671042,-0.00780571179083,0.0843601037041,0.000660866776322,0.996404539844,-0.0270288667176,0.210598951325,0.000787484859853,-1.58249712313,-0.145388672221,9.27756353871
8671122,-0.00864696773309,0.0851198443288,0.000738737553788,0.996332924437,-0.0289880218744,0.204260652042,0.000472490915912,-1.59377794062,-0.160735194299,9.25815766302
8671202,-0.00941969382751,0.0863203795708,0.000816194670482,0.996222563118,-0.0288864447841,0.195349391735,0.000283494549547,-1.60437715378,-0.173773830203,9.18689851627
8671282,-0.00997722862375,0.0877379019485,0.000878814423577,0.996093240192,-0.027974118407,0.18659711506,-0.00195835357758,-1.62629899246,-0.183512373073,9.15826881801
8671362,-0.0103770004225,0.0884393493146,0.000921395794072,0.996027083158,-0.0257239623349,0.172406257763,-0.00372915251532,-1.64711354099,-0.191749700455,9.1999883599
